"sep=	"
Shimmer_A679_TimestampSync_Unix_CAL	Shimmer_A679_Accel_LN_X_CAL	Shimmer_A679_Accel_LN_Y_CAL	Shimmer_A679_Accel_LN_Z_CAL	Shimmer_A679_Accel_WR_X_CAL	Shimmer_A679_Accel_WR_Y_CAL	Shimmer_A679_Accel_WR_Z_CAL	Shimmer_A679_Battery_CAL	Shimmer_A679_Ext_Exp_A15_CAL	Shimmer_A679_GSR_Range_CAL	Shimmer_A679_GSR_Skin_Conductance_CAL	Shimmer_A679_GSR_Skin_Resistance_CAL	Shimmer_A679_Gyro_X_CAL	Shimmer_A679_Gyro_Y_CAL	Shimmer_A679_Gyro_Z_CAL	Shimmer_A679_Mag_X_CAL	Shimmer_A679_Mag_Y_CAL	Shimmer_A679_Mag_Z_CAL	Shimmer_A679_PPG_A13_CAL	Shimmer_A679_Pressure_BMP280_CAL	Shimmer_A679_Temperature_BMP280_CAL	
ms	m/(s^2)	m/(s^2)	m/(s^2)	m/(s^2)	m/(s^2)	m/(s^2)	mV	mV	no_units	uS	kOhms	deg/s	deg/s	deg/s	local_flux	local_flux	local_flux	mV	kPa	Degrees Celsius	
1.7720175401841338E12	3.3043478260869565	2.619565217391304	11.152173913043478	1.409934171154997	0.12687013764213045	9.895870736086176	4143.589743589743	1687.179487179487	3.0	0.01531801531801533	65282.60869565212	-6.427480916030534	3.480916030534351	3.8931297709923665	-1.64167916041979	-0.35082458770614694	-0.6521739130434783	0.0	99.83897683038708	32.88303414467373	
1.772017540184152E12	3.3152173913043477	2.608695652173913	11.119565217391305	1.2375822860562538	0.02154398563734291	9.75703171753441	4123.076923076923	1894.5054945054944	3.0	0.014874014874014888	67231.34328358203	-7.49618320610687	4.015267175572519	3.969465648854962	-1.6446776611694152	-0.34782608695652173	-0.6461769115442278	0.0	99.83897683038708	32.88303414467373	
1.7720175401841702E12	3.7282608695652173	2.630434782608696	11.239130434782608	1.7067624177139438	0.08378216636744464	9.934171154997008	4150.91575091575	1756.7765567765566	3.0	0.01531801531801533	65282.60869565212	-7.557251908396946	4.702290076335878	5.007633587786259	-1.6371814092953523	-0.34332833583208394	-0.649175412293853	0.0	99.83897683038708	32.88303414467373	
1.7720175401841885E12	3.510869565217391	2.543478260869565	11.097826086956522	1.622980251346499	-0.02154398563734291	9.826451226810294	4127.472527472527	1681.3186813186812	3.0	0.014874014874014888	67231.34328358203	-8.320610687022901	8.51908396946565	4.412213740458015	-1.6461769115442277	-0.3493253373313343	-0.6551724137931034	0.0	99.83897683038708	32.88303414467373	
1.7720175401842065E12	3.260869565217391	2.4782608695652173	11.0	1.3141831238779174	-0.0933572710951526	9.713943746259725	4150.91575091575	1697.4358974358972	3.0	0.014874014874014888	67231.34328358203	-8.244274809160306	9.465648854961831	2.6717557251908395	-1.6461769115442277	-0.3538230884557721	-0.6461769115442278	0.0	99.8361196326382	32.88303414467373	
1.7720175402142485E12	-8.902173913043478	24.48913043478261	-14.467391304347826	1.1597845601436265	-1.2052663076002395	-0.7366846199880311	0.0	44643.22344322344	0.0	125.0	8.0	-1.9389312977099236	500.2748091603053	35.43511450381679	3.421289355322339	-4.197901049475262	0.047976011994003	5.128205128205128	-21.419663485674032	119.6998214072606	
1.77201754066165E12	3.5760869565217392	2.7282608695652173	11.108695652173912	1.63016157989228	0.16756433273488927	9.816876122082585	4149.450549450549	1694.5054945054944	3.0	0.014874014874014888	67231.34328358203	-6.916030534351145	4.061068702290076	1.0076335877862594	-1.6401799100449774	-0.3538230884557721	-0.649175412293853	0.0	99.8361196326382	32.88303414467373	
1.7720175406616682E12	3.3804347826086953	2.5543478260869565	10.967391304347826	1.4314781567923398	0.02154398563734291	9.656493117893477	4149.450549450549	1695.2380952380952	3.0	0.014874014874014888	67231.34328358203	-6.793893129770992	7.374045801526718	0.7786259541984732	-1.6431784107946026	-0.36281859070464767	-0.6536731634182908	482.05128205128204	99.83326243770067	32.88303414467373	
1.7720175406616865E12	3.119565217391304	2.380434782608696	10.91304347826087	1.1059245960502693	-0.1891083183722322	9.577498503889887	4146.520146520146	1694.5054945054944	3.0	0.014874014874014888	67231.34328358203	-6.3206106870229	8.290076335877862	-0.2748091603053435	-1.64167916041979	-0.3448275862068965	-0.6521739130434783	1608.058608058608	99.83326243770067	32.88303414467373	
1.7720175406915393E12	24.413043478260867	74.46739130434783	24.48913043478261	2.1615798922800717	-1.3847995212447637	9.37642130460802	187.54578754578753	23818.315018315017	0.0	48.85827273886975	20.467362924281986	156.27480916030532	367.28244274809157	-62.70229007633588	23.36581709145427	36.89655172413793	-9.547226386806596	45010.98901098901	134.3190524798688	15.769237801997225	
1.7720175411391296E12	3.402173913043478	2.543478260869565	11.08695652173913	1.417115499700778	-0.0047875523638539795	9.713943746259725	4149.450549450549	1695.2380952380952	3.0	0.01531801531801533	65282.60869565212	-3.9389312977099236	3.32824427480916	0.7175572519083969	-1.6446776611694152	-0.34632683658170915	-0.649175412293853	2802.197802197802	99.83897683038708	32.88303414467373	
1.772017541139148E12	3.2065217391304346	2.358695652173913	10.91304347826087	1.3213644524236983	-0.11250748055056851	9.699581089168163	4123.076923076923	1897.4358974358972	3.0	0.01531801531801533	65282.60869565212	-3.6946564885496183	2.2748091603053435	2.1221374045801524	-1.6476761619190403	-0.35082458770614694	-0.6626686656671664	2802.197802197802	99.8361196326382	32.88303414467373	
1.7720175411391663E12	3.358695652173913	2.402173913043478	10.880434782608695	1.2112507480550567	-0.2561340514661879	9.529622980251347	4150.91575091575	1757.5091575091574	3.0	0.01531801531801533	65282.60869565212	-2.7022900763358777	-1.7709923664122136	2.9770992366412212	-1.6461769115442277	-0.3238380809595202	-0.6521739130434783	2802.197802197802	99.83897683038708	32.88303414467373	
1.7720175411391843E12	3.5760869565217392	2.5217391304347827	11.076086956521738	1.5320167564332734	-0.08378216636744464	9.63016157989228	4150.91575091575	1718.6813186813185	3.0	0.01531801531801533	65282.60869565212	-2.1221374045801524	-3.49618320610687	2.030534351145038	-1.6446776611694152	-0.3703148425787106	-0.6476761619190404	2802.197802197802	99.84183403094731	32.88303414467373	
1.7720175411392026E12	3.5652173913043477	2.4891304347826084	11.076086956521738	1.6612806702573308	-0.06702573309395571	9.771394374625972	4149.450549450549	1701.098901098901	3.0	0.01531801531801533	65282.60869565212	-2.610687022900763	-1.0076335877862594	1.297709923664122	-1.6431784107946026	-0.34782608695652173	-0.6596701649175412	2802.197802197802	99.84183403094731	32.88303414467373	
1.7720175411392207E12	3.4239130434782608	2.391304347826087	11.032608695652174	1.5296229802513464	-0.16756433273488927	9.680430879712747	4149.450549450549	1696.7032967032967	3.0	0.01531801531801533	65282.60869565212	-3.1908396946564883	0.9465648854961831	-0.2595419847328244	-1.6476761619190403	-0.34632683658170915	-0.656671664167916	2802.197802197802	99.84183403094731	32.88303414467373	
1.772017541139239E12	3.3369565217391304	2.3369565217391304	11.076086956521738	1.3476959904248953	-0.2585278276481149	9.742669060442848	4150.91575091575	1707.6923076923076	3.0	0.015762015762015774	63443.66197183094	-4.137404580152672	1.0534351145038168	-0.47328244274809156	-1.6521739130434783	-0.34182908545727136	-0.6476761619190404	2801.465201465201	99.84183403094731	32.88303414467373	
1.7720175411392573E12	3.4239130434782608	2.4565217391304346	11.032608695652174	1.40754039497307	-0.14841412327947337	9.713943746259725	4149.450549450549	1697.4358974358972	3.0	0.01531801531801533	65282.60869565212	-4.641221374045801	0.4427480916030534	-0.8244274809160305	-1.6476761619190403	-0.34782608695652173	-0.6581709145427286	2802.197802197802	99.84469123431887	32.88303414467373	
1.7720175411392754E12	3.3043478260869565	2.4456521739130435	11.032608695652174	1.40754039497307	-0.10053859964093358	9.685218432076601	4147.985347985347	1700.3663003663003	3.0	0.01531801531801533	65282.60869565212	-4.595419847328244	1.4198473282442747	-1.5877862595419847	-1.6551724137931034	-0.34632683658170915	-0.6581709145427286	2802.197802197802	99.84469123431887	32.88303414467373	
1.7720175411392937E12	3.2065217391304346	2.4456521739130435	11.065217391304348	1.2064631956912029	-0.12926391382405744	9.706762417713943	4120.14652014652	1891.5750915750914	3.0	0.01531801531801533	65282.60869565212	-5.251908396946565	1.5877862595419847	-1.5267175572519083	-1.6371814092953523	-0.3538230884557721	-0.6596701649175412	2802.197802197802	99.83897683038708	32.88303414467373	
1.7720175411393118E12	3.3804347826086953	2.4891304347826084	11.065217391304348	1.2902453620586476	-0.10771992818671454	9.761819269898265	4147.985347985347	1755.311355311355	3.0	0.01531801531801533	65282.60869565212	-5.190839694656488	-0.5190839694656488	-1.099236641221374	-1.6401799100449774	-0.35532233883058467	-0.6506746626686657	2802.197802197802	99.8361196326382	32.88303414467373	
1.7720175412258171E12	330.5	91.44565217391305	169.1086956521739	-18.384201077199283	-16.553560742070616	-9.197486535008977	5632.234432234432	7509.89010989011	3.0	1.180819180819181	846.8697123519457	-187.61832061068702	242.32061068702288	-297.0381679389313	-15.014992503748125	-5.229385307346327	14.640179910044978	45205.1282051282	79.32095667314496	-141.59850989570842	
1.7720175416167551E12	3.369565217391304	2.4239130434782608	11.184782608695652	1.385996409335727	-0.15080789946140036	9.85996409335727	4146.520146520146	1699.6336996336995	3.0	0.01531801531801533	65282.60869565212	-4.625954198473282	1.2061068702290076	0.04580152671755725	-1.6356821589205397	-0.3373313343328336	-0.6446776611694153	2802.197802197802	99.8475484405018	32.88303414467373	
1.7720175416167734E12	3.4239130434782608	2.4456521739130435	11.184782608695652	1.414721723518851	-0.13165769000598443	9.864751645721125	4147.985347985347	1701.098901098901	3.0	0.015762015762015774	63443.66197183094	-3.9236641221374042	0.8702290076335878	-0.916030534351145	-1.64167916041979	-0.3448275862068965	-0.6536731634182908	2649.0842490842488	99.84183403094731	32.88303414467373	
1.7720175416167917E12	3.4565217391304346	2.5217391304347827	11.25	1.5008976660682225	-0.05505685218432076	9.931777378815081	4145.054945054945	1693.040293040293	3.0	0.01531801531801533	65282.60869565212	-3.5725190839694654	-0.7175572519083969	-0.8549618320610687	-1.6461769115442277	-0.3448275862068965	-0.6461769115442278	2171.428571428571	99.84469123431887	32.88303414467373	
1.7720175416168098E12	3.4782608695652173	2.4239130434782608	11.130434782608695	1.5128665469778575	-0.12926391382405744	9.82166367444644	4147.985347985347	1698.168498168498	3.0	0.01531801531801533	65282.60869565212	-3.236641221374046	0.41221374045801523	-0.8244274809160305	-1.6476761619190403	-0.34632683658170915	-0.6536731634182908	1695.2380952380952	99.83897683038708	32.88303414467373	
1.7720175416168281E12	3.4565217391304346	2.4456521739130435	11.097826086956522	1.4817474566128066	-0.12926391382405744	9.783363255535606	4149.450549450549	1694.5054945054944	3.0	0.015762015762015774	63443.66197183094	-2.595419847328244	1.0687022900763359	-1.5725190839694656	-1.6371814092953523	-0.35532233883058467	-0.6476761619190404	1298.168498168498	99.83897683038708	32.88303414467373	
1.7720175416168462E12	3.5	2.5217391304347827	11.239130434782608	1.4985038898862957	-0.06223818073010173	9.9245960502693	4126.007326007326	1656.4102564102564	3.0	0.015762015762015774	63443.66197183094	-2.4580152671755724	1.129770992366412	-1.1450381679389312	-1.6446776611694152	-0.35082458770614694	-0.6461769115442278	970.6959706959707	99.84183403094731	32.88303414467373	
1.7720175416463528E12	24.33695652173913	24.358695652173914	-3.3369565217391304	-0.3040095751047277	8.57510472770796	-2.3040095751047276	2974.358974358974	0.0	0.0	125.0	8.0	58.916030534351144	3.1908396946564883	-29.43511450381679	-19.233883058470763	38.41379310344828	0.1409295352323838	24005.860805860804	74.81931249618877	156.07522358354763	
1.7720175420942896E12	3.532608695652174	2.467391304347826	11.076086956521738	1.5415918611609813	-0.12447636146020347	9.785757031717534	4149.450549450549	1747.2527472527472	3.0	0.015762015762015774	63443.66197183094	-2.0	0.030534351145038167	-1.3893129770992365	-1.64167916041979	-0.37181409295352325	-0.6461769115442278	384.6153846153846	99.84183403094731	32.88303414467373	
1.7720175420943079E12	3.5760869565217392	2.5543478260869565	11.17391304347826	1.601436265709156	-0.00718132854578097	9.879114302812686	4147.985347985347	1714.2857142857142	3.0	0.01531801531801533	65282.60869565212	-1.7251908396946565	-0.13740458015267176	-1.3282442748091603	-1.6386806596701649	-0.3538230884557721	-0.656671664167916	79.85347985347985	99.84183403094731	32.88303414467373	
1.772017542094326E12	3.4891304347826084	2.510869565217391	11.130434782608695	1.5463794135248354	-0.06702573309395571	9.814482345900657	4123.076923076923	1902.5641025641025	3.0	0.01531801531801533	65282.60869565212	-1.4961832061068703	0.8854961832061068	-1.5877862595419847	-1.6476761619190403	-0.34332833583208394	-0.6581709145427286	0.0	99.84469123431887	32.88303414467373	
1.7720175420943442E12	3.4565217391304346	2.4130434782608696	11.032608695652174	1.4745661280670257	-0.15559545182525433	9.728306403351286	4149.450549450549	1753.113553113553	3.0	0.01531801531801533	65282.60869565212	-2.0	1.3435114503816794	-1.4961832061068703	-1.64167916041979	-0.34632683658170915	-0.6461769115442278	0.0	99.83897683038708	32.88303414467373	
1.7720175420943625E12	3.402173913043478	2.5543478260869565	11.08695652173913	1.426690604428486	-0.12687013764213045	9.697187312986236	4149.450549450549	1711.3553113553112	3.0	0.01531801531801533	65282.60869565212	-1.5114503816793892	0.6870229007633587	-1.618320610687023	-1.6461769115442277	-0.3493253373313343	-0.656671664167916	0.0	99.84183403094731	32.88303414467373	
1.7720175420943806E12	3.5978260869565215	2.5760869565217392	11.097826086956522	1.5104727707959305	0.06941950927588271	9.792938360263316	4149.450549450549	1699.6336996336995	3.0	0.01531801531801533	65282.60869565212	-1.5114503816793892	-0.5801526717557252	-1.66412213740458	-1.64167916041979	-0.3538230884557721	-0.649175412293853	0.0	99.83897683038708	32.88303414467373	
1.772017542094399E12	3.5543478260869565	2.4130434782608696	11.01086956521739	1.67803710353082	-0.10771992818671454	9.761819269898265	4127.472527472527	1665.201465201465	3.0	0.01531801531801533	65282.60869565212	-1.5114503816793892	-0.6106870229007634	-1.4351145038167938	-1.6461769115442277	-0.35532233883058467	-0.6536731634182908	0.0	99.84183403094731	32.88303414467373	
1.772017542094417E12	3.369565217391304	2.4456521739130435	11.01086956521739	1.4506283662477557	-0.14602034709754638	9.663674446439257	4123.076923076923	1888.6446886446886	3.0	0.015762015762015774	63443.66197183094	-1.5877862595419847	1.0381679389312977	-2.0763358778625953	-1.6326836581709145	-0.36431784107946025	-0.6536731634182908	0.0	99.83897683038708	32.88303414467373	
1.7720175420944353E12	3.4891304347826084	2.543478260869565	11.032608695652174	1.414721723518851	-0.05745062836624776	9.735487731897067	4149.450549450549	1748.7179487179485	3.0	0.01531801531801533	65282.60869565212	-2.549618320610687	-1.0381679389312977	-1.984732824427481	-1.6506746626686657	-0.34632683658170915	-0.649175412293853	0.0	99.84469123431887	32.88303414467373	
1.7720175420944536E12	3.4565217391304346	2.5978260869565215	11.065217391304348	1.5104727707959305	0.016756433273488927	9.706762417713943	4121.611721611721	1912.8205128205127	3.0	0.01531801531801533	65282.60869565212	-3.282442748091603	-0.5038167938931297	-2.0	-1.6386806596701649	-0.33883058470764615	-0.6521739130434783	0.0	99.8361196326382	32.88303414467373	
1.7720175420944717E12	3.4565217391304346	2.5652173913043477	11.054347826086957	1.414721723518851	0.016756433273488927	9.742669060442848	4150.91575091575	1761.9047619047617	3.0	0.01531801531801533	65282.60869565212	-3.480916030534351	-1.0534351145038168	-2.381679389312977	-1.6461769115442277	-0.34332833583208394	-0.6416791604197901	0.0	99.8361196326382	32.88303414467373	
1.77201754209449E12	3.4891304347826084	2.5760869565217392	11.108695652173912	1.5248354278874925	-0.033512866546977854	9.728306403351286	4149.450549450549	1713.5531135531135	3.0	0.01531801531801533	65282.60869565212	-3.5877862595419847	1.450381679389313	-1.8931297709923662	-1.6431784107946026	-0.34632683658170915	-0.6476761619190404	0.0	99.83367119818622	32.867958851368165	
1.772017542094508E12	3.391304347826087	2.684782608695652	11.141304347826086	1.426690604428486	0.10053859964093358	9.82884500299222	4149.450549450549	1700.3663003663003	3.0	0.01531801531801533	65282.60869565212	-3.9083969465648853	3.297709923664122	-1.3893129770992365	-1.64167916041979	-0.3538230884557721	-0.6551724137931034	0.0	99.8422425911598	32.867958851368165	
1.7720175420945264E12	3.402173913043478	2.6630434782608696	11.032608695652174	1.400359066427289	0.13165769000598443	9.7737881508079	4149.450549450549	1695.970695970696	3.0	0.01531801531801533	65282.60869565212	-3.8931297709923665	3.297709923664122	-1.3740458015267174	-1.6446776611694152	-0.335832083958021	-0.6506746626686657	0.0	99.8450997277734	32.867958851368165	
1.7720175420945447E12	3.3369565217391304	2.4891304347826084	11.032608695652174	1.3524835427887492	-0.038300418910831836	9.713943746259725	4123.076923076923	1897.4358974358972	3.0	0.014874014874014888	67231.34328358203	-3.9236641221374042	2.4885496183206106	-1.3129770992366412	-1.6476761619190403	-0.3568215892053973	-0.6476761619190404	0.0	99.8393854573574	32.867958851368165	
1.7720175420945627E12	3.369565217391304	2.5760869565217392	11.195652173913043	1.3141831238779174	-0.019150209455415918	9.871932974266906	4123.076923076923	1955.311355311355	3.0	0.01531801531801533	65282.60869565212	-3.3587786259541983	0.9007633587786259	-0.42748091603053434	-1.6476761619190403	-0.3568215892053973	-0.6536731634182908	325.27472527472526	99.8393854573574	32.867958851368165	
1.772017542094581E12	3.532608695652174	2.5217391304347827	11.206521739130434	1.5224416517055654	-0.00718132854578097	9.936564931178934	4149.450549450549	1769.9633699633698	3.0	0.014874014874014888	67231.34328358203	-2.931297709923664	0.8091603053435115	-0.13740458015267176	-1.6476761619190403	-0.3523238380809595	-0.6446776611694153	1732.6007326007325	99.8393854573574	32.867958851368165	
1.772017542094599E12	3.5217391304347827	2.510869565217391	11.032608695652174	1.5679233991621784	-0.0718132854578097	9.752244165170556	4149.450549450549	1717.216117216117	3.0	0.014874014874014888	67231.34328358203	-2.427480916030534	2.3206106870229006	-0.6717557251908397	-1.64167916041979	-0.3448275862068965	-0.6416791604197901	2802.197802197802	99.8393854573574	32.867958851368165	
1.7720175420946174E12	3.4456521739130435	2.5869565217391304	11.065217391304348	1.4554159186116098	0.05745062836624776	9.747456612806703	4123.076923076923	1904.0293040293038	3.0	0.01531801531801533	65282.60869565212	-2.549618320610687	2.549618320610687	-1.2213740458015268	-1.64167916041979	-0.3523238380809595	-0.6551724137931034	2801.465201465201	99.8450997277734	32.867958851368165	
1.7720175420946357E12	3.4782608695652173	2.532608695652174	11.108695652173912	1.4841412327947336	-0.038300418910831836	9.795332136445243	4147.985347985347	1758.2417582417581	3.0	0.01531801531801533	65282.60869565212	-3.0839694656488548	1.0687022900763359	-1.450381679389313	-1.6461769115442277	-0.31634182908545727	-0.6611694152923538	2802.197802197802	99.84795686719822	32.867958851368165	
1.7720175420946538E12	3.4782608695652173	2.630434782608696	11.08695652173913	1.5032914422501495	0.08617594254937164	9.752244165170556	4147.985347985347	1717.9487179487178	3.0	0.01531801531801533	65282.60869565212	-3.0534351145038165	1.2519083969465647	-2.259541984732824	-1.6386806596701649	-0.3373313343328336	-0.6401799100449775	2802.197802197802	99.8450997277734	32.867958851368165	
1.772017542094672E12	3.4782608695652173	2.543478260869565	11.054347826086957	1.4961101137043686	-0.0023937761819269898	9.704368641532017	4149.450549450549	1701.8315018315018	3.0	0.01531801531801533	65282.60869565212	-3.0229007633587783	1.465648854961832	-2.2900763358778624	-1.6461769115442277	-0.3583208395802099	-0.6551724137931034	2802.197802197802	99.8422425911598	32.867958851368165	
1.7720175420946902E12	3.3260869565217392	2.5978260869565215	11.076086956521738	1.3213644524236983	0.02154398563734291	9.747456612806703	4124.542124542124	1905.4945054945053	3.0	0.01531801531801533	65282.60869565212	-3.16030534351145	0.8396946564885496	-2.1374045801526718	-1.6401799100449774	-0.35532233883058467	-0.6461769115442278	2802.197802197802	99.8393854573574	32.867958851368165	
1.7720175420947085E12	3.4456521739130435	2.6630434782608696	11.08695652173913	1.4458408138839018	0.0933572710951526	9.769000598444045	4149.450549450549	1753.113553113553	3.0	0.01531801531801533	65282.60869565212	-3.2213740458015265	0.22900763358778625	-2.5343511450381677	-1.64167916041979	-0.3493253373313343	-0.649175412293853	2802.197802197802	99.8422425911598	32.867958851368165	
1.7720175420947268E12	3.510869565217391	2.608695652173913	11.076086956521738	1.5152603231597845	0.059844404548174746	9.730700179533214	4147.985347985347	1716.4835164835163	3.0	0.01531801531801533	65282.60869565212	-3.5267175572519083	1.5419847328244274	-2.229007633587786	-1.6386806596701649	-0.35082458770614694	-0.6461769115442278	2802.197802197802	99.8422425911598	32.867958851368165	
1.7720175420947449E12	3.293478260869565	2.5978260869565215	11.054347826086957	1.3117893476959903	0.047875523638539794	9.737881508078994	4147.985347985347	1705.4945054945053	3.0	0.01531801531801533	65282.60869565212	-3.3740458015267176	1.816793893129771	-2.6564885496183206	-1.6446776611694152	-0.34782608695652173	-0.6416791604197901	2802.197802197802	99.8422425911598	32.867958851368165	
1.7720175420947632E12	3.3043478260869565	2.652173913043478	11.054347826086957	1.2543387193297426	0.047875523638539794	9.71873129862358	4147.985347985347	1702.5641025641025	3.0	0.01531801531801533	65282.60869565212	-3.6488549618320607	-0.0916030534351145	-1.984732824427481	-1.6356821589205397	-0.34332833583208394	-0.6536731634182908	2802.9304029304026	99.8450997277734	32.867958851368165	
1.7720175420947812E12	3.467391304347826	2.7391304347826084	11.097826086956522	1.3836026331538	0.15798922800718132	9.752244165170556	4146.520146520146	1695.2380952380952	3.0	0.01531801531801533	65282.60869565212	-3.9083969465648853	0.564885496183206	-2.1526717557251906	-1.6356821589205397	-0.3238380809595202	-0.649175412293853	2802.197802197802	99.8450997277734	32.867958851368165	
1.7720175420947996E12	3.391304347826087	2.630434782608696	11.021739130434783	1.5032914422501495	0.14602034709754638	9.728306403351286	4146.520146520146	1693.040293040293	3.0	0.01531801531801533	65282.60869565212	-4.045801526717557	1.9389312977099236	-1.9389312977099236	-1.64167916041979	-0.3613193403298351	-0.649175412293853	2802.197802197802	99.8450997277734	32.867958851368165	
1.7720175420948179E12	3.25	2.510869565217391	11.01086956521739	1.3117893476959903	0.023937761819269897	9.66128067025733	4149.450549450549	1693.7728937728937	3.0	0.01531801531801533	65282.60869565212	-4.1679389312977095	1.5114503816793892	-2.091603053435114	-1.6431784107946026	-0.36731634182908546	-0.6431784107946027	2802.197802197802	99.83367119818622	32.867958851368165	
1.772017542094836E12	3.358695652173913	2.510869565217391	11.021739130434783	1.2710951526032315	-0.05745062836624776	9.675643327348892	4121.611721611721	1895.970695970696	3.0	0.014874014874014888	67231.34328358203	-3.7862595419847325	-1.0687022900763359	-1.984732824427481	-1.6431784107946026	-0.35532233883058467	-0.6416791604197901	2802.197802197802	99.83652832636618	32.867958851368165	
1.7720175420948542E12	3.467391304347826	2.717391304347826	11.0	1.4554159186116098	0.11250748055056851	9.687612208258528	4149.450549450549	1750.9157509157508	3.0	0.01531801531801533	65282.60869565212	-4.290076335877862	-0.32061068702290074	-2.8396946564885495	-1.6431784107946026	-0.35082458770614694	-0.656671664167916	2632.234432234432	99.8393854573574	32.867958851368165	
1.7720175420948723E12	3.4130434782608696	2.5652173913043477	10.967391304347826	1.4889287851585877	0.08856971873129862	9.625374027528427	4147.985347985347	1715.018315018315	3.0	0.01531801531801533	65282.60869565212	-5.267175572519084	0.5801526717557252	-2.7022900763358777	-1.6446776611694152	-0.35082458770614694	-0.656671664167916	2079.120879120879	99.8422425911598	32.867958851368165	
1.7720175420948906E12	3.369565217391304	2.5760869565217392	11.108695652173912	1.3668461998803112	-0.031119090365050867	9.67085577498504	4147.985347985347	1704.0293040293038	3.0	0.01531801531801533	65282.60869565212	-6.076335877862595	0.8244274809160305	-2.213740458015267	-1.6446776611694152	-0.35082458770614694	-0.6416791604197901	1535.5311355311355	99.8422425911598	32.867958851368165	
1.7720175420949087E12	3.5217391304347827	2.652173913043478	11.184782608695652	1.4937163375224416	0.12447636146020347	9.874326750448834	4149.450549450549	1696.7032967032967	3.0	0.01531801531801533	65282.60869565212	-5.893129770992366	1.099236641221374	-2.381679389312977	-1.6431784107946026	-0.3538230884557721	-0.6446776611694153	1100.3663003663003	99.8393854573574	32.867958851368165	
1.772017542094927E12	3.4130434782608696	2.543478260869565	11.130434782608695	1.4913225613405146	0.0023937761819269898	9.845601436265708	4149.450549450549	1695.2380952380952	3.0	0.01531801531801533	65282.60869565212	-6.091603053435114	2.916030534351145	-2.610687022900763	-1.6386806596701649	-0.3523238380809595	-0.6341829085457271	766.3003663003662	99.8393854573574	32.867958851368165	
1.7720175420949453E12	3.2391304347826084	2.510869565217391	11.17391304347826	1.2495511669658887	-0.03590664272890485	9.867145421903052	4149.450549450549	1693.7728937728937	3.0	0.01531801531801533	65282.60869565212	-5.3893129770992365	1.282442748091603	-2.9618320610687023	-1.6401799100449774	-0.36431784107946025	-0.6371814092953523	489.37728937728934	99.8393854573574	32.867958851368165	
1.7720175420949634E12	3.3804347826086953	2.5652173913043477	11.195652173913043	1.2998204667863555	-0.06463195691202872	9.883901855176541	4149.450549450549	1694.5054945054944	3.0	0.01531801531801533	65282.60869565212	-4.458015267175572	-1.618320610687023	-2.854961832061069	-1.6431784107946026	-0.36281859070464767	-0.6431784107946027	240.29304029304026	99.8450997277734	32.867958851368165	
1.7720175420949817E12	3.4782608695652173	2.7065217391304346	11.228260869565217	1.5080789946140036	0.14602034709754638	9.919808497905446	4126.007326007326	1656.4102564102564	3.0	0.01531801531801533	65282.60869565212	-4.33587786259542	-0.4427480916030534	-2.732824427480916	-1.6446776611694152	-0.35982008995502246	-0.6461769115442278	13.919413919413918	99.8422425911598	32.867958851368165	
1.7720175420949998E12	3.391304347826087	2.5760869565217392	11.206521739130434	1.436265709156194	0.059844404548174746	9.9245960502693	4149.450549450549	1677.6556776556774	3.0	0.01531801531801533	65282.60869565212	-3.877862595419847	1.114503816793893	-2.213740458015267	-1.6356821589205397	-0.3613193403298351	-0.6461769115442278	0.0	99.83652832636618	32.867958851368165	
1.772017542095018E12	3.282608695652174	2.5217391304347827	11.16304347826087	1.2926391382405744	-0.07899461400359066	9.838420107719928	4149.450549450549	1689.3772893772893	3.0	0.01531801531801533	65282.60869565212	-3.114503816793893	1.450381679389313	-2.8396946564885495	-1.64167916041979	-0.3448275862068965	-0.6626686656671664	0.0	99.8393854573574	32.867958851368165	
1.7720175420950364E12	3.260869565217391	2.619565217391304	11.130434782608695	1.2687013764213046	0.031119090365050867	9.82166367444644	4149.450549450549	1693.040293040293	3.0	0.01531801531801533	65282.60869565212	-3.114503816793893	0.8244274809160305	-2.763358778625954	-1.64167916041979	-0.35082458770614694	-0.6506746626686657	0.0	99.8393854573574	32.867958851368165	
1.7720175420950544E12	3.3043478260869565	2.532608695652174	11.043478260869565	1.3357271095152603	-0.011968880909634948	9.711549970077797	4149.450549450549	1693.7728937728937	3.0	0.01531801531801533	65282.60869565212	-3.3740458015267176	-0.16793893129770993	-1.9541984732824427	-1.6371814092953523	-0.35982008995502246	-0.6506746626686657	0.0	99.8393854573574	32.867958851368165	
1.7720175420950728E12	3.25	2.4239130434782608	11.01086956521739	1.2543387193297426	-0.13405146618791142	9.67803710353082	4149.450549450549	1694.5054945054944	3.0	0.01531801531801533	65282.60869565212	-3.297709923664122	-0.3053435114503817	-1.5877862595419847	-1.6401799100449774	-0.3583208395802099	-0.6446776611694153	0.0	99.8393854573574	32.867958851368165	
1.7720175420950908E12	3.358695652173913	2.510869565217391	11.08695652173913	1.3668461998803112	-0.06941950927588271	9.735487731897067	4149.450549450549	1694.5054945054944	3.0	0.01531801531801533	65282.60869565212	-3.6946564885496183	-0.5801526717557252	-1.5725190839694656	-1.6401799100449774	-0.3568215892053973	-0.6581709145427286	0.0	99.8393854573574	32.867958851368165	
1.7720175420951091E12	3.4239130434782608	2.6739130434782608	11.119565217391305	1.4602034709754637	0.12208258527827648	9.809694793536805	4149.450549450549	1693.7728937728937	3.0	0.01531801531801533	65282.60869565212	-4.519083969465648	0.8396946564885496	-0.7022900763358778	-1.6431784107946026	-0.3583208395802099	-0.6536731634182908	0.0	99.8393854573574	32.867958851368165	
1.7720175420951274E12	3.3260869565217392	2.652173913043478	11.141304347826086	1.3596648713345303	0.11250748055056851	9.776181926989826	4123.076923076923	1897.4358974358972	3.0	0.01531801531801533	65282.60869565212	-5.236641221374046	2.396946564885496	-1.8625954198473282	-1.6476761619190403	-0.3493253373313343	-0.6431784107946027	0.0	99.8422425911598	32.867958851368165	
1.7720175420951455E12	3.369565217391304	2.510869565217391	11.076086956521738	1.374027528426092	0.052663076002393776	9.752244165170556	4123.076923076923	1954.5787545787543	3.0	0.01531801531801533	65282.60869565212	-5.694656488549618	1.816793893129771	-2.183206106870229	-1.6431784107946026	-0.3523238380809595	-0.6431784107946027	0.0	99.8422425911598	32.867958851368165	
1.7720175420951638E12	3.4130434782608696	2.4347826086956523	11.184782608695652	1.390783961699581	-0.13883901855176542	9.792938360263316	4150.91575091575	1774.3589743589741	3.0	0.01531801531801533	65282.60869565212	-5.083969465648854	1.7099236641221374	-1.2366412213740459	-1.6401799100449774	-0.3493253373313343	-0.656671664167916	0.0	99.8393854573574	32.867958851368165	
1.772017542095182E12	3.3804347826086953	2.5543478260869565	11.228260869565217	1.40754039497307	-0.08378216636744464	9.87672052663076	4149.450549450549	1717.9487179487178	3.0	0.01531801531801533	65282.60869565212	-4.366412213740458	2.1374045801526718	-0.916030534351145	-1.6431784107946026	-0.35082458770614694	-0.6446776611694153	216.84981684981685	99.8393854573574	32.867958851368165	
1.7720175420952002E12	3.3804347826086953	2.510869565217391	11.206521739130434	1.417115499700778	-0.009575104727707959	9.91741472172352	4149.450549450549	1701.8315018315018	3.0	0.01531801531801533	65282.60869565212	-3.5114503816793894	1.129770992366412	-1.6030534351145038	-1.6401799100449774	-0.36431784107946025	-0.649175412293853	1000.7326007326006	99.8422425911598	32.867958851368165	
1.7720175420952185E12	3.402173913043478	2.467391304347826	11.195652173913043	1.409934171154997	-0.09096349491322561	9.883901855176541	4149.450549450549	1697.4358974358972	3.0	0.01531801531801533	65282.60869565212	-3.1755725190839694	0.6717557251908397	-1.3435114503816794	-1.6401799100449774	-0.3613193403298351	-0.649175412293853	1856.4102564102564	99.83652832636618	32.867958851368165	
1.7720175420952366E12	3.369565217391304	2.543478260869565	11.16304347826087	1.414721723518851	-0.08617594254937164	9.785757031717534	4149.450549450549	1695.970695970696	3.0	0.01531801531801533	65282.60869565212	-2.4427480916030535	0.6106870229007634	-1.129770992366412	-1.6446776611694152	-0.3613193403298351	-0.6416791604197901	2536.996336996337	99.8422425911598	32.867958851368165	
1.772017542095255E12	3.4130434782608696	2.6739130434782608	11.130434782608695	1.4458408138839018	0.11250748055056851	9.776181926989826	4149.450549450549	1694.5054945054944	3.0	0.01531801531801533	65282.60869565212	-3.0076335877862594	0.7786259541984732	-1.0381679389312977	-1.6461769115442277	-0.3493253373313343	-0.649175412293853	2802.197802197802	99.8393854573574	32.867958851368165	
1.772017542095273E12	3.3804347826086953	2.5869565217391304	11.08695652173913	1.412327947336924	0.040694195092758824	9.752244165170556	4126.007326007326	1657.142857142857	3.0	0.015762015762015774	63443.66197183094	-2.7938931297709924	1.3129770992366412	-2.229007633587786	-1.6401799100449774	-0.335832083958021	-0.6476761619190404	2801.465201465201	99.8393854573574	32.867958851368165	
1.7720175420952913E12	3.3369565217391304	2.5978260869565215	11.065217391304348	1.3309395571514062	0.02154398563734291	9.735487731897067	4149.450549450549	1683.5164835164835	3.0	0.01531801531801533	65282.60869565212	-3.2061068702290076	1.099236641221374	-2.396946564885496	-1.6401799100449774	-0.35082458770614694	-0.6521739130434783	2802.197802197802	99.83367119818622	32.867958851368165	
1.7720175420953096E12	3.467391304347826	2.608695652173913	11.119565217391305	1.438659485338121	0.06463195691202872	9.82166367444644	4147.985347985347	1695.2380952380952	3.0	0.015762015762015774	63443.66197183094	-3.5725190839694654	1.0076335877862594	-2.183206106870229	-1.6401799100449774	-0.3523238380809595	-0.6551724137931034	2801.465201465201	99.8450997277734	32.867958851368165	
1.7720175420953276E12	3.3804347826086953	2.652173913043478	11.097826086956522	1.4554159186116098	0.06702573309395571	9.783363255535606	4121.611721611721	1896.7032967032965	3.0	0.01531801531801533	65282.60869565212	-3.6488549618320607	3.16030534351145	-1.9541984732824427	-1.6401799100449774	-0.36731634182908546	-0.656671664167916	2802.197802197802	99.8422425911598	32.867958851368165	
1.772017542095346E12	3.2391304347826084	2.619565217391304	11.054347826086957	1.2734889287851585	0.0718132854578097	9.699581089168163	4149.450549450549	1750.9157509157508	3.0	0.015762015762015774	63443.66197183094	-3.66412213740458	3.282442748091603	-2.33587786259542	-1.6281859070464768	-0.3538230884557721	-0.649175412293853	2802.197802197802	99.83367119818622	32.867958851368165	
1.772017542095364E12	3.260869565217391	2.641304347826087	11.108695652173912	1.2351885098743267	0.06463195691202872	9.723518850987432	4149.450549450549	1711.3553113553112	3.0	0.01531801531801533	65282.60869565212	-4.0	1.3129770992366412	-2.763358778625954	-1.6461769115442277	-0.3613193403298351	-0.6536731634182908	2802.197802197802	99.8393854573574	32.867958851368165	
1.7720175420953823E12	3.3478260869565215	2.7391304347826084	11.17391304347826	1.3213644524236983	0.20347097546379414	9.845601436265708	4147.985347985347	1704.0293040293038	3.0	0.01531801531801533	65282.60869565212	-3.9541984732824424	0.5190839694656488	-1.8778625954198473	-1.6341829085457271	-0.3493253373313343	-0.6476761619190404	2802.9304029304026	99.83652832636618	32.867958851368165	
1.7720175420954006E12	3.4130434782608696	2.641304347826087	11.108695652173912	1.397965290245362	0.1412327947336924	9.785757031717534	4149.450549450549	1697.4358974358972	3.0	0.01531801531801533	65282.60869565212	-3.877862595419847	0.8091603053435115	-1.1908396946564885	-1.6386806596701649	-0.3493253373313343	-0.6416791604197901	2802.197802197802	99.8422425911598	32.867958851368165	
1.7720175420954187E12	3.358695652173913	2.619565217391304	11.032608695652174	1.390783961699581	0.07660083782166367	9.713943746259725	4126.007326007326	1657.142857142857	3.0	0.01531801531801533	65282.60869565212	-2.763358778625954	2.687022900763359	-1.3893129770992365	-1.6371814092953523	-0.3538230884557721	-0.6446776611694153	2802.197802197802	99.83897776887669	32.84785846436862	
1.772017542095437E12	3.2282608695652173	2.6630434782608696	11.076086956521738	1.2495511669658887	0.08138839018551765	9.730700179533214	4149.450549450549	1684.249084249084	3.0	0.01531801531801533	65282.60869565212	-3.099236641221374	1.5114503816793892	-0.8396946564885496	-1.6461769115442277	-0.3493253373313343	-0.6536731634182908	2729.6703296703295	99.84183481273188	32.84785846436862	
1.772017542095455E12	3.4239130434782608	2.6630434782608696	11.108695652173912	1.414721723518851	0.11490125673249552	9.795332136445243	4149.450549450549	1690.8424908424906	3.0	0.01531801531801533	65282.60869565212	-2.8702290076335877	-0.6259541984732824	-1.3435114503816794	-1.6371814092953523	-0.32233883058470764	-0.649175412293853	2389.010989010989	99.83612072783255	32.84785846436862	
1.7720175420954734E12	3.4891304347826084	2.608695652173913	11.01086956521739	1.5439856373429084	0.05505685218432076	9.706762417713943	4146.520146520146	1691.5750915750914	3.0	0.01531801531801533	65282.60869565212	-2.931297709923664	-0.42748091603053434	-2.015267175572519	-1.6371814092953523	-0.3613193403298351	-0.6536731634182908	2002.197802197802	99.84183481273188	32.84785846436862	
1.7720175420954917E12	3.3478260869565215	2.5652173913043477	11.0	1.402752842609216	0.02154398563734291	9.642130460801916	4123.076923076923	1895.970695970696	3.0	0.014874014874014888	67231.34328358203	-3.2061068702290076	0.4580152671755725	-2.0	-1.64167916041979	-0.3538230884557721	-0.6536731634182908	1658.6080586080584	99.84183481273188	32.84785846436862	
1.7720175420955098E12	3.369565217391304	2.619565217391304	10.989130434782608	1.3883901855176541	0.038300418910831836	9.666068222621185	4149.450549450549	1750.9157509157508	3.0	0.01531801531801533	65282.60869565212	-3.3740458015267176	0.8091603053435115	-2.198473282442748	-1.631184407796102	-0.3613193403298351	-0.6461769115442278	1402.9304029304028	99.83897776887669	32.84785846436862	
1.772017542095528E12	3.4239130434782608	2.652173913043478	11.08695652173913	1.40754039497307	0.10771992818671454	9.766606822262117	4149.450549450549	1710.6227106227104	3.0	0.01531801531801533	65282.60869565212	-3.709923664122137	0.6412213740458015	-2.4885496183206106	-1.6296851574212894	-0.3523238380809595	-0.6416791604197901	1213.1868131868132	99.84183481273188	32.84785846436862	
1.7720175421237598E12	24.33695652173913	24.358695652173914	-3.3369565217391304	2.4536205864751643	7.809096349491322	-2.3046080191502094	2974.358974358974	0.0	0.0	125.0	8.0	59.11450381679389	0.5190839694656488	-29.709923664122137	-19.998500749625187	40.71814092953523	0.1409295352323838	24005.860805860804	190.97801441873432	149.63924193913118	
1.7720175425729714E12	3.293478260869565	2.5760869565217392	11.076086956521738	1.3165769000598444	-0.019150209455415918	9.74985038898863	4126.007326007326	1657.8754578754579	3.0	0.014874014874014888	67231.34328358203	-3.9541984732824424	-0.21374045801526717	-2.6259541984732824	-1.6326836581709145	-0.3328335832083958	-0.6446776611694153	883.5164835164835	99.83897776887669	32.84785846436862	
1.7720175425729895E12	3.4130434782608696	2.608695652173913	11.076086956521738	1.3692399760622382	0.06463195691202872	9.737881508078994	4149.450549450549	1684.249084249084	3.0	0.014874014874014888	67231.34328358203	-3.480916030534351	-0.564885496183206	-2.8091603053435112	-1.6401799100449774	-0.3373313343328336	-0.6476761619190404	723.076923076923	99.84183481273188	32.84785846436862	
1.7720175425730078E12	3.293478260869565	2.641304347826087	11.08695652173913	1.3692399760622382	0.02154398563734291	9.745062836624776	4149.450549450549	1691.5750915750914	3.0	0.014874014874014888	67231.34328358203	-3.2061068702290076	1.2061068702290076	-2.351145038167939	-1.6386806596701649	-0.36281859070464767	-0.6536731634182908	570.6959706959707	99.83897776887669	32.84785846436862	
1.772017542573026E12	3.1956521739130435	2.630434782608696	11.108695652173912	1.180131657690006	0.11250748055056851	9.759425493716337	4146.520146520146	1691.5750915750914	3.0	0.014874014874014888	67231.34328358203	-3.5267175572519083	0.8244274809160305	-2.4885496183206106	-1.6401799100449774	-0.35532233883058467	-0.6506746626686657	429.30402930402926	99.84183481273188	32.84785846436862	
1.7720175425730442E12	3.3152173913043477	2.641304347826087	11.119565217391305	1.2806702573309394	0.05505685218432076	9.80490724117295	4149.450549450549	1693.7728937728937	3.0	0.014874014874014888	67231.34328358203	-3.633587786259542	-0.7938931297709924	-2.7022900763358777	-1.631184407796102	-0.3583208395802099	-0.6536731634182908	293.040293040293	99.83897776887669	32.84785846436862	
1.7720175425730625E12	3.3152173913043477	2.6956521739130435	11.119565217391305	1.3141831238779174	0.15798922800718132	9.85278276481149	4149.450549450549	1693.7728937728937	3.0	0.014874014874014888	67231.34328358203	-4.259541984732825	-0.0916030534351145	-2.5038167938931295	-1.6401799100449774	-0.34632683658170915	-0.6521739130434783	169.96336996336996	99.83612072783255	32.84785846436862	
1.7720175425730806E12	3.25	2.5652173913043477	11.08695652173913	1.2639138240574506	0.05505685218432076	9.766606822262117	4149.450549450549	1693.7728937728937	3.0	0.014874014874014888	67231.34328358203	-4.152671755725191	0.2595419847328244	-1.5725190839694656	-1.6341829085457271	-0.34782608695652173	-0.6506746626686657	75.45787545787546	99.84183481273188	32.84785846436862	
1.7720175425730989E12	3.2065217391304346	2.608695652173913	11.032608695652174	1.187312986235787	0.026331538001196888	9.704368641532017	4149.450549450549	1693.7728937728937	3.0	0.014874014874014888	67231.34328358203	-4.198473282442748	-0.061068702290076333	-1.0687022900763359	-1.6431784107946026	-0.35982008995502246	-0.6521739130434783	30.769230769230766	99.83897776887669	32.84785846436862	
1.772017542573117E12	3.358695652173913	2.652173913043478	11.08695652173913	1.3046080191502094	0.1172950329144225	9.72591262716936	4126.007326007326	1656.4102564102564	3.0	0.014874014874014888	67231.34328358203	-4.351145038167939	-0.6106870229007634	-0.916030534351145	-1.64167916041979	-0.34782608695652173	-0.6416791604197901	40.29304029304029	99.84183481273188	32.84785846436862	
1.7720175425731353E12	3.369565217391304	2.641304347826087	11.17391304347826	1.3764213046080191	0.1172950329144225	9.833632555356074	4121.611721611721	1885.7142857142856	3.0	0.014874014874014888	67231.34328358203	-4.824427480916031	-0.16793893129770993	-0.9312977099236641	-1.64167916041979	-0.3328335832083958	-0.6521739130434783	95.97069597069597	99.83612072783255	32.84785846436862	
1.7720175425731536E12	3.3043478260869565	2.5978260869565215	11.141304347826086	1.3309395571514062	0.059844404548174746	9.831238779174146	4149.450549450549	1747.985347985348	3.0	0.014874014874014888	67231.34328358203	-4.824427480916031	0.33587786259541985	-1.1603053435114503	-1.6386806596701649	-0.3583208395802099	-0.6506746626686657	198.5347985347985	99.84183481273188	32.84785846436862	
1.7720175425731716E12	3.358695652173913	2.5543478260869565	11.0	1.3285457809694794	0.019150209455415918	9.723518850987432	4146.520146520146	1708.4249084249084	3.0	0.01531801531801533	65282.60869565212	-4.65648854961832	0.22900763358778625	-1.4961832061068703	-1.6356821589205397	-0.36281859070464767	-0.649175412293853	357.5091575091575	99.83326368959942	32.84785846436862	
1.77201754257319E12	3.3369565217391304	2.760869565217391	11.141304347826086	1.371633752244165	0.18192698982645122	9.809694793536805	4150.91575091575	1705.4945054945053	3.0	0.01531801531801533	65282.60869565212	-4.5038167938931295	1.2366412213740459	-1.4809160305343512	-1.6356821589205397	-0.3658170914542728	-0.649175412293853	574.3589743589744	99.83612072783255	32.84785846436862	
1.772017542573208E12	3.358695652173913	2.6630434782608696	11.195652173913043	1.3500897666068223	0.1699581089168163	9.90065828845003	4149.450549450549	1698.168498168498	3.0	0.01531801531801533	65282.60869565212	-5.038167938931298	0.9770992366412213	-1.129770992366412	-1.6356821589205397	-0.35082458770614694	-0.6416791604197901	841.7582417582418	99.83326368959942	32.84785846436862	
1.7720175425732263E12	3.3804347826086953	2.510869565217391	11.152173913043478	1.390783961699581	-0.023937761819269897	9.819269898264512	4149.450549450549	1695.970695970696	3.0	0.01531801531801533	65282.60869565212	-4.702290076335878	0.33587786259541985	-1.816793893129771	-1.6386806596701649	-0.3523238380809595	-0.6506746626686657	1142.1245421245421	99.83612072783255	32.84785846436862	
1.7720175425732446E12	3.3804347826086953	2.5869565217391304	11.16304347826087	1.400359066427289	0.01436265709156194	9.836026331538001	4149.450549450549	1695.2380952380952	3.0	0.01531801531801533	65282.60869565212	-4.137404580152672	0.16793893129770993	-1.3435114503816794	-1.6431784107946026	-0.34782608695652173	-0.6551724137931034	1456.4102564102564	99.84183481273188	32.84785846436862	
1.7720175425732627E12	3.467391304347826	2.619565217391304	11.17391304347826	1.4578096947935368	0.0718132854578097	9.850388988629563	4123.076923076923	1897.4358974358972	3.0	0.01531801531801533	65282.60869565212	-3.4351145038167936	0.0916030534351145	-0.8396946564885496	-1.64167916041979	-0.35082458770614694	-0.6581709145427286	1761.172161172161	99.83326368959942	32.84785846436862	
1.772017542573281E12	3.4456521739130435	2.5543478260869565	11.097826086956522	1.4961101137043686	0.0047875523638539795	9.764213046080192	4149.450549450549	1751.6483516483515	3.0	0.01531801531801533	65282.60869565212	-3.5267175572519083	0.13740458015267176	-1.984732824427481	-1.6461769115442277	-0.36431784107946025	-0.6476761619190404	2037.3626373626373	99.84183481273188	32.84785846436862	
1.772017542573299E12	3.3478260869565215	2.532608695652174	11.08695652173913	1.3596648713345303	0.0	9.74985038898863	4147.985347985347	1716.4835164835163	3.0	0.01531801531801533	65282.60869565212	-3.282442748091603	0.366412213740458	-2.091603053435114	-1.6341829085457271	-0.3328335832083958	-0.656671664167916	2264.4688644688645	99.83326368959942	32.84785846436862	
1.7720175425733174E12	3.3804347826086953	2.652173913043478	11.043478260869565	1.395571514063435	0.09575104727707959	9.735487731897067	4143.589743589743	1691.5750915750914	3.0	0.01531801531801533	65282.60869565212	-3.2061068702290076	-0.7786259541984732	-2.0763358778625953	-1.6371814092953523	-0.3613193403298351	-0.6461769115442278	2443.223443223443	99.83612072783255	32.84785846436862	
1.7720175425733357E12	3.402173913043478	2.7065217391304346	11.043478260869565	1.419509275882705	0.15798922800718132	9.747456612806703	4149.450549450549	1700.3663003663003	3.0	0.015762015762015774	63443.66197183094	-3.8931297709923665	-0.1984732824427481	-2.6717557251908395	-1.6401799100449774	-0.35532233883058467	-0.6446776611694153	2569.9633699633696	99.83897776887669	32.84785846436862	
1.7720175425733538E12	3.2717391304347827	2.5869565217391304	11.032608695652174	1.3644524236983842	0.10771992818671454	9.697187312986236	4147.985347985347	1701.098901098901	3.0	0.015762015762015774	63443.66197183094	-4.625954198473282	1.129770992366412	-2.946564885496183	-1.6326836581709145	-0.34782608695652173	-0.6596701649175412	2642.490842490842	99.83612072783255	32.84785846436862	
1.772017542573372E12	3.184782608695652	2.608695652173913	11.054347826086957	1.2184320766008379	0.031119090365050867	9.692399760622381	4147.985347985347	1701.098901098901	3.0	0.015762015762015774	63443.66197183094	-5.0534351145038165	1.3587786259541985	-2.3206106870229006	-1.6386806596701649	-0.35532233883058467	-0.6521739130434783	2668.131868131868	99.83326368959942	32.84785846436862	
1.7720175425733901E12	3.282608695652174	2.619565217391304	11.152173913043478	1.2280071813285458	0.11250748055056851	9.790544584081388	4147.985347985347	1701.098901098901	3.0	0.015762015762015774	63443.66197183094	-4.625954198473282	0.7480916030534351	-1.8473282442748091	-1.6431784107946026	-0.3538230884557721	-0.6551724137931034	2643.9560439560437	99.83040665417735	32.84785846436862	
1.7720175425734084E12	3.282608695652174	2.5652173913043477	11.141304347826086	1.362058647516457	0.045481747456612806	9.864751645721125	4124.542124542124	1905.4945054945053	3.0	0.015762015762015774	63443.66197183094	-5.1603053435114505	1.1755725190839694	-1.5725190839694656	-1.6401799100449774	-0.35082458770614694	-0.6431784107946027	2569.230769230769	99.83612072783255	32.84785846436862	
1.7720175425734268E12	3.217391304347826	2.619565217391304	11.097826086956522	1.1944943147815679	0.016756433273488927	9.797725912627168	4149.450549450549	1753.113553113553	3.0	0.01531801531801533	65282.60869565212	-4.625954198473282	1.0076335877862594	-2.030534351145038	-1.6371814092953523	-0.3568215892053973	-0.6476761619190404	2456.4102564102564	99.84183481273188	32.84785846436862	
1.7720175425734448E12	3.358695652173913	2.641304347826087	11.195652173913043	1.2926391382405744	0.07899461400359066	9.836026331538001	4147.985347985347	1716.4835164835163	3.0	0.01531801531801533	65282.60869565212	-4.442748091603053	-0.5343511450381679	-1.7099236641221374	-1.6356821589205397	-0.37181409295352325	-0.664167916041979	2326.007326007326	99.83897776887669	32.84785846436862	
1.7720175425734631E12	3.369565217391304	2.6630434782608696	11.195652173913043	1.417115499700778	0.13405146618791142	9.919808497905446	4143.589743589743	1690.8424908424906	3.0	0.015762015762015774	63443.66197183094	-4.549618320610687	-0.10687022900763359	-1.1450381679389312	-1.6386806596701649	-0.3613193403298351	-0.6446776611694153	2183.8827838827838	99.84183481273188	32.84785846436862	
1.7720175425734812E12	3.3804347826086953	2.5543478260869565	11.097826086956522	1.385996409335727	0.03590664272890485	9.812088569718732	4149.450549450549	1693.7728937728937	3.0	0.015762015762015774	63443.66197183094	-3.801526717557252	0.7175572519083969	-0.7633587786259541	-1.6521739130434783	-0.3568215892053973	-0.649175412293853	2032.9670329670328	99.84183481273188	32.84785846436862	
1.7720175425734995E12	3.3260869565217392	2.6630434782608696	11.184782608695652	1.3764213046080191	0.031119090365050867	9.800119688809096	4149.450549450549	1693.7728937728937	3.0	0.015762015762015774	63443.66197183094	-3.801526717557252	1.0687022900763359	-1.5572519083969465	-1.6326836581709145	-0.34332833583208394	-0.6401799100449775	1878.3882783882782	99.84183481273188	32.84785846436862	
1.7720175425735176E12	3.3369565217391304	2.652173913043478	11.228260869565217	1.3237582286056253	0.13165769000598443	9.922202274087372	4149.450549450549	1693.7728937728937	3.0	0.01531801531801533	65282.60869565212	-3.618320610687023	0.8549618320610687	-1.4809160305343512	-1.6386806596701649	-0.35532233883058467	-0.6446776611694153	1727.4725274725274	99.83326368959942	32.84785846436862	
1.772017542573536E12	3.4456521739130435	2.5760869565217392	11.08695652173913	1.4625972471573907	0.023937761819269897	9.87672052663076	4149.450549450549	1693.7728937728937	3.0	0.01531801531801533	65282.60869565212	-3.49618320610687	-0.9618320610687022	-1.5572519083969465	-1.6386806596701649	-0.35982008995502246	-0.6476761619190404	1575.8241758241757	99.84183481273188	32.84785846436862	
1.7720175425735542E12	3.3369565217391304	2.6630434782608696	11.065217391304348	1.3883901855176541	0.06702573309395571	9.70197486535009	4126.007326007326	1656.4102564102564	3.0	0.01531801531801533	65282.60869565212	-3.3435114503816794	0.13740458015267176	-1.6030534351145038	-1.631184407796102	-0.32233883058470764	-0.6596701649175412	1427.106227106227	99.83612072783255	32.84785846436862	
1.7720175425735723E12	3.3152173913043477	2.760869565217391	11.130434782608695	1.2926391382405744	0.234590065828845	9.795332136445243	4150.91575091575	1690.10989010989	3.0	0.01531801531801533	65282.60869565212	-3.541984732824427	1.3893129770992365	-1.7099236641221374	-1.6386806596701649	-0.36731634182908546	-0.6461769115442278	1288.6446886446886	99.83897776887669	32.84785846436862	
1.7720175425735906E12	3.3804347826086953	2.5978260869565215	11.097826086956522	1.400359066427289	0.08856971873129862	9.785757031717534	4149.450549450549	1693.040293040293	3.0	0.01531801531801533	65282.60869565212	-3.49618320610687	0.6412213740458015	-1.7862595419847327	-1.6371814092953523	-0.36281859070464767	-0.6551724137931034	1162.6373626373625	99.83897776887669	32.84785846436862	
1.7720175425736086E12	3.3478260869565215	2.5869565217391304	11.054347826086957	1.3548773189706762	0.040694195092758824	9.728306403351286	4143.589743589743	1684.9816849816848	3.0	0.01531801531801533	65282.60869565212	-3.5877862595419847	0.6870229007633587	-1.7709923664122136	-1.6356821589205397	-0.3568215892053973	-0.6551724137931034	1036.6300366300366	99.83897776887669	32.84785846436862	
1.772017542573627E12	3.3260869565217392	2.619565217391304	11.065217391304348	1.2998204667863555	0.07899461400359066	9.74985038898863	4150.91575091575	1698.168498168498	3.0	0.014874014874014888	67231.34328358203	-3.9083969465648853	1.129770992366412	-1.2519083969465647	-1.6371814092953523	-0.3538230884557721	-0.6521739130434783	909.1575091575091	99.84183481273188	32.84785846436862	
1.7720175425736453E12	3.369565217391304	2.630434782608696	11.108695652173912	1.393177737881508	0.09575104727707959	9.797725912627168	4149.450549450549	1695.2380952380952	3.0	0.01531801531801533	65282.60869565212	-3.83206106870229	0.4580152671755725	-1.5419847328244274	-1.6401799100449774	-0.3523238380809595	-0.6506746626686657	789.7435897435897	99.83612072783255	32.84785846436862	
1.7720175425736633E12	3.358695652173913	2.641304347826087	11.076086956521738	1.3836026331538	0.10293237582286056	9.752244165170556	4149.450549450549	1694.5054945054944	3.0	0.014874014874014888	67231.34328358203	-3.9236641221374042	0.24427480916030533	-1.7099236641221374	-1.6371814092953523	-0.3568215892053973	-0.6476761619190404	695.9706959706959	99.83612072783255	32.84785846436862	
1.7720175425736816E12	3.3043478260869565	2.652173913043478	11.076086956521738	1.3141831238779174	0.10532615200478755	9.730700179533214	4149.450549450549	1694.5054945054944	3.0	0.014874014874014888	67231.34328358203	-3.8167938931297707	0.8091603053435115	-1.8778625954198473	-1.6401799100449774	-0.35982008995502246	-0.656671664167916	623.4432234432234	99.84183481273188	32.84785846436862	
1.7720175425736997E12	3.3152173913043477	2.619565217391304	11.097826086956522	1.3285457809694794	0.06941950927588271	9.759425493716337	4126.007326007326	1657.142857142857	3.0	0.014874014874014888	67231.34328358203	-4.0	0.2595419847328244	-1.5725190839694656	-1.6386806596701649	-0.36431784107946025	-0.6626686656671664	570.6959706959707	99.83897776887669	32.84785846436862	
1.772017542573718E12	3.3369565217391304	2.684782608695652	11.065217391304348	1.3524835427887492	0.15798922800718132	9.737881508078994	4123.076923076923	1887.179487179487	3.0	0.014874014874014888	67231.34328358203	-3.877862595419847	-0.2748091603053435	-2.183206106870229	-1.64167916041979	-0.36281859070464767	-0.6371814092953523	542.1245421245421	99.83897776887669	32.84785846436862	
1.7720175426011665E12	24.33695652173913	24.358695652173914	-3.3369565217391304	2.4536205864751643	6.736684619988031	-12.569120287253142	2974.358974358974	0.0	0.0	125.0	8.0	55.175572519083964	-497.4961832061069	-29.61832061068702	-20.002998500749623	10.397301349325337	0.1409295352323838	24005.860805860804	167.82423143222772	183.13772113854066	
1.7720175430511614E12	3.2717391304347827	2.543478260869565	11.108695652173912	1.3692399760622382	-0.047875523638539794	9.704368641532017	4143.589743589743	1700.3663003663003	3.0	0.014874014874014888	67231.34328358203	-4.702290076335878	0.5038167938931297	-1.5267175572519083	-1.6431784107946026	-0.35532233883058467	-0.656671664167916	575.8241758241758	99.84020237032783	32.83780827261508	
1.7720175430511797E12	3.358695652173913	2.641304347826087	11.195652173913043	1.2806702573309394	0.05745062836624776	9.857570317175345	4149.450549450549	1696.7032967032967	3.0	0.014874014874014888	67231.34328358203	-4.778625954198473	0.8702290076335878	-1.5114503816793892	-1.6401799100449774	-0.33883058470764615	-0.649175412293853	637.3626373626373	99.84020237032783	32.83780827261508	
1.7720175430511978E12	3.391304347826087	2.5978260869565215	11.108695652173912	1.426690604428486	0.08138839018551765	9.812088569718732	4150.91575091575	1701.8315018315018	3.0	0.014874014874014888	67231.34328358203	-4.305343511450381	-0.04580152671755725	-1.7709923664122136	-1.6401799100449774	-0.3583208395802099	-0.6521739130434783	720.1465201465201	99.84020237032783	32.83780827261508	
1.772017543051216E12	3.2391304347826084	2.5978260869565215	11.032608695652174	1.2830640335128665	0.045481747456612806	9.70197486535009	4149.450549450549	1695.970695970696	3.0	0.014874014874014888	67231.34328358203	-4.916030534351145	1.1755725190839694	-1.5725190839694656	-1.6326836581709145	-0.35532233883058467	-0.6476761619190404	826.3736263736263	99.84305937061502	32.83780827261508	
1.7720175430512341E12	3.3369565217391304	2.5543478260869565	11.152173913043478	1.2687013764213046	0.023937761819269897	9.814482345900657	4149.450549450549	1695.2380952380952	3.0	0.014874014874014888	67231.34328358203	-4.8396946564885495	0.41221374045801523	-1.83206106870229	-1.6371814092953523	-0.36281859070464767	-0.649175412293853	954.5787545787546	99.84020237032783	32.83780827261508	
1.7720175430512524E12	3.4456521739130435	2.641304347826087	11.195652173913043	1.412327947336924	0.08617594254937164	9.934171154997008	4126.007326007326	1657.142857142857	3.0	0.014874014874014888	67231.34328358203	-4.793893129770992	-0.10687022900763359	-1.465648854961832	-1.64167916041979	-0.3658170914542728	-0.6461769115442278	1095.2380952380952	99.84020237032783	32.83780827261508	
1.7720175430512708E12	3.4130434782608696	2.630434782608696	11.141304347826086	1.436265709156194	0.08378216636744464	9.857570317175345	4149.450549450549	1684.249084249084	3.0	0.014874014874014888	67231.34328358203	-4.259541984732825	0.7175572519083969	-0.8244274809160305	-1.6341829085457271	-0.36281859070464767	-0.6521739130434783	1241.7582417582416	99.83448837818628	32.83780827261508	
1.7720175430512888E12	3.3152173913043477	2.5760869565217392	11.097826086956522	1.3261520047875524	0.040694195092758824	9.780969479353681	4149.450549450549	1691.5750915750914	3.0	0.014874014874014888	67231.34328358203	-4.137404580152672	1.7404580152671756	-1.083969465648855	-1.64167916041979	-0.35532233883058467	-0.6446776611694153	1402.9304029304028	99.84020237032783	32.83780827261508	
1.7720175430513071E12	3.3369565217391304	2.532608695652174	11.17391304347826	1.3046080191502094	-0.026331538001196888	9.82166367444644	4142.124542124542	1688.6446886446886	3.0	0.01531801531801533	65282.60869565212	-3.83206106870229	1.7251908396946565	-1.5267175572519083	-1.631184407796102	-0.34782608695652173	-0.6476761619190404	1561.9047619047617	99.83734537285157	32.83780827261508	
1.7720175430513252E12	3.434782608695652	2.641304347826087	11.195652173913043	1.4458408138839018	0.06223818073010173	9.926989826451226	4149.450549450549	1693.040293040293	3.0	0.01531801531801533	65282.60869565212	-3.66412213740458	0.04580152671755725	-1.083969465648855	-1.6356821589205397	-0.335832083958021	-0.6476761619190404	1698.168498168498	99.83448837818628	32.83780827261508	
1.7720175430513435E12	3.4239130434782608	2.641304347826087	11.119565217391305	1.4458408138839018	0.09096349491322561	9.838420107719928	4149.450549450549	1693.7728937728937	3.0	0.01531801531801533	65282.60869565212	-2.9770992366412212	-0.366412213740458	-1.083969465648855	-1.6401799100449774	-0.3583208395802099	-0.6521739130434783	1810.989010989011	99.84020237032783	32.83780827261508	
1.7720175430513618E12	3.3260869565217392	2.5869565217391304	10.978260869565217	1.3572710951526032	0.031119090365050867	9.697187312986236	4147.985347985347	1698.9010989010987	3.0	0.01531801531801533	65282.60869565212	-3.49618320610687	0.732824427480916	-1.282442748091603	-1.6356821589205397	-0.36281859070464767	-0.6461769115442278	1912.8205128205127	99.84020237032783	32.83780827261508	
1.77201754305138E12	3.282608695652174	2.7282608695652173	11.065217391304348	1.2950329144225015	0.1436265709156194	9.723518850987432	4143.589743589743	1686.4468864468863	3.0	0.01531801531801533	65282.60869565212	-3.4198473282442747	1.114503816793893	-1.7099236641221374	-1.6446776611694152	-0.3403298350824588	-0.6581709145427286	1999.9999999999998	99.84020237032783	32.83780827261508	
1.7720175430513982E12	3.3369565217391304	2.619565217391304	11.119565217391305	1.374027528426092	0.12926391382405744	9.788150807899461	4124.542124542124	1901.098901098901	3.0	0.01531801531801533	65282.60869565212	-3.9541984732824424	0.5343511450381679	-1.1450381679389312	-1.6341829085457271	-0.35082458770614694	-0.6401799100449775	2058.6080586080584	99.84305937061502	32.83780827261508	
1.7720175430514163E12	3.3043478260869565	2.5869565217391304	11.065217391304348	1.3333333333333333	0.026331538001196888	9.735487731897067	4121.611721611721	1955.311355311355	3.0	0.01531801531801533	65282.60869565212	-4.3206106870229	0.6717557251908397	-1.3587786259541985	-1.6461769115442277	-0.3658170914542728	-0.6431784107946027	2077.6556776556777	99.84020237032783	32.83780827261508	
1.7720175430514346E12	3.282608695652174	2.641304347826087	11.119565217391305	1.2830640335128665	0.09096349491322561	9.766606822262117	4149.450549450549	1768.4981684981683	3.0	0.01531801531801533	65282.60869565212	-4.229007633587786	0.47328244274809156	-2.091603053435114	-1.6341829085457271	-0.3523238380809595	-0.6476761619190404	2073.9926739926736	99.83448837818628	32.83780827261508	
1.7720175430514526E12	3.3260869565217392	2.75	11.130434782608695	1.3453022142429683	0.2106523040095751	9.812088569718732	4140.65934065934	1704.7619047619046	3.0	0.015762015762015774	63443.66197183094	-4.183206106870228	0.8091603053435115	-1.2519083969465647	-1.6386806596701649	-0.3523238380809595	-0.6446776611694153	2050.5494505494503	99.83448837818628	32.83780827261508	
1.772017543051471E12	3.25	2.641304347826087	11.08695652173913	1.2543387193297426	0.10293237582286056	9.7737881508079	4121.611721611721	1900.3663003663003	3.0	0.01531801531801533	65282.60869565212	-5.038167938931298	1.2213740458015268	-1.3893129770992365	-1.6386806596701649	-0.3523238380809595	-0.6461769115442278	2008.7912087912086	99.83448837818628	32.83780827261508	
1.7720175430514893E12	3.293478260869565	2.5217391304347827	11.08695652173913	1.3093955715140635	-0.040694195092758824	9.75703171753441	4149.450549450549	1752.3809523809523	3.0	0.015762015762015774	63443.66197183094	-4.442748091603053	0.15267175572519084	-1.1755725190839694	-1.6401799100449774	-0.35082458770614694	-0.6506746626686657	1950.9157509157508	99.84020237032783	32.83780827261508	
1.7720175430515073E12	3.3478260869565215	2.6630434782608696	11.16304347826087	1.3572710951526032	0.12926391382405744	9.836026331538001	4147.985347985347	1716.4835164835163	3.0	0.015762015762015774	63443.66197183094	-4.3206106870229	1.129770992366412	-0.9618320610687022	-1.6341829085457271	-0.35982008995502246	-0.6461769115442278	1871.7948717948716	99.84020237032783	32.83780827261508	
1.7720175430515256E12	3.402173913043478	2.608695652173913	11.17391304347826	1.405146618791143	0.07660083782166367	9.867145421903052	4149.450549450549	1700.3663003663003	3.0	0.015762015762015774	63443.66197183094	-4.519083969465648	1.0229007633587786	-1.5267175572519083	-1.6386806596701649	-0.3583208395802099	-0.6461769115442278	1788.278388278388	99.84020237032783	32.83780827261508	
1.7720175430515437E12	3.3152173913043477	2.5652173913043477	11.097826086956522	1.3381208856971873	0.047875523638539794	9.819269898264512	4126.007326007326	1657.8754578754579	3.0	0.01531801531801533	65282.60869565212	-4.870229007633587	1.0687022900763359	-1.9389312977099236	-1.6386806596701649	-0.35982008995502246	-0.649175412293853	1706.9597069597069	99.83734537285157	32.83780827261508	
1.772017543051562E12	3.282608695652174	2.619565217391304	11.130434782608695	1.2710951526032315	0.016756433273488927	9.797725912627168	4149.450549450549	1684.9816849816848	3.0	0.01531801531801533	65282.60869565212	-4.33587786259542	0.5954198473282443	-2.3206106870229006	-1.6341829085457271	-0.34182908545727136	-0.649175412293853	1630.03663003663	99.8316313863319	32.83780827261508	
1.7720175430515803E12	3.3260869565217392	2.7065217391304346	11.184782608695652	1.3524835427887492	0.13883901855176542	9.833632555356074	4150.91575091575	1698.168498168498	3.0	0.015762015762015774	63443.66197183094	-4.65648854961832	1.8015267175572518	-2.2900763358778624	-1.6386806596701649	-0.34632683658170915	-0.6356821589205397	1558.2417582417581	99.84305937061502	32.83780827261508	
1.7720175430515984E12	3.2391304347826084	2.619565217391304	11.152173913043478	1.2615200478755235	0.13405146618791142	9.847995212447636	4142.124542124542	1690.8424908424906	3.0	0.01531801531801533	65282.60869565212	-4.7328244274809155	1.648854961832061	-2.16793893129771	-1.6461769115442277	-0.3568215892053973	-0.6476761619190404	1483.5164835164835	99.84020237032783	32.83780827261508	
1.7720175430516167E12	3.25	2.5760869565217392	11.043478260869565	1.2280071813285458	0.04308797127468582	9.764213046080192	4150.91575091575	1699.6336996336995	3.0	0.015762015762015774	63443.66197183094	-4.534351145038168	0.8549618320610687	-1.4961832061068703	-1.6446776611694152	-0.3583208395802099	-0.6401799100449775	1406.5934065934066	99.84305937061502	32.83780827261508	
1.7720175430516348E12	3.3043478260869565	2.6630434782608696	11.130434782608695	1.2567324955116697	0.05745062836624776	9.740275284260921	4149.450549450549	1695.970695970696	3.0	0.01531801531801533	65282.60869565212	-4.2748091603053435	1.648854961832061	-1.2061068702290076	-1.6431784107946026	-0.3568215892053973	-0.6431784107946027	1330.4029304029302	99.83734537285157	32.83780827261508	
1.772017543051653E12	3.260869565217391	2.641304347826087	11.17391304347826	1.3093955715140635	0.1364452423698384	9.855176540993417	4123.076923076923	1897.4358974358972	3.0	0.015762015762015774	63443.66197183094	-4.854961832061068	1.816793893129771	-1.3893129770992365	-1.6386806596701649	-0.34332833583208394	-0.6596701649175412	1259.3406593406592	99.84020237032783	32.83780827261508	
1.7720175430516714E12	3.282608695652174	2.5760869565217392	11.108695652173912	1.2734889287851585	0.033512866546977854	9.809694793536805	4149.450549450549	1745.054945054945	3.0	0.01531801531801533	65282.60869565212	-4.290076335877862	1.0534351145038168	-1.5267175572519083	-1.6401799100449774	-0.3658170914542728	-0.6476761619190404	1190.4761904761904	99.84020237032783	32.83780827261508	
1.7720175430516895E12	3.3152173913043477	2.619565217391304	11.065217391304348	1.2758827049670856	0.038300418910831836	9.761819269898265	4149.450549450549	1708.4249084249084	3.0	0.01531801531801533	65282.60869565212	-3.8931297709923665	0.8396946564885496	-1.450381679389313	-1.6461769115442277	-0.35082458770614694	-0.6446776611694153	1131.8681318681317	99.84020237032783	32.83780827261508	
1.7720175430517078E12	3.391304347826087	2.619565217391304	11.16304347826087	1.3692399760622382	0.08856971873129862	9.831238779174146	4149.450549450549	1698.9010989010987	3.0	0.01531801531801533	65282.60869565212	-4.122137404580153	2.183206106870229	-1.5267175572519083	-1.6431784107946026	-0.34782608695652173	-0.6461769115442278	1087.179487179487	99.83448837818628	32.83780827261508	
1.7720175430517258E12	3.260869565217391	2.608695652173913	11.08695652173913	1.3285457809694794	0.03590664272890485	9.790544584081388	4149.450549450549	1695.970695970696	3.0	0.01531801531801533	65282.60869565212	-4.2748091603053435	2.3206106870229006	-1.7251908396946565	-1.6431784107946026	-0.35532233883058467	-0.6446776611694153	1053.4798534798533	99.84020237032783	32.83780827261508	
1.7720175430517441E12	3.1739130434782608	2.619565217391304	11.021739130434783	1.158587672052663	0.0718132854578097	9.692399760622381	4142.124542124542	1690.10989010989	3.0	0.01531801531801533	65282.60869565212	-3.969465648854962	0.7480916030534351	-1.8015267175572518	-1.6431784107946026	-0.3538230884557721	-0.6521739130434783	1030.7692307692307	99.84305937061502	32.83780827261508	
1.7720175430517625E12	3.3369565217391304	2.630434782608696	11.108695652173912	1.2926391382405744	0.06223818073010173	9.745062836624776	4149.450549450549	1693.7728937728937	3.0	0.01531801531801533	65282.60869565212	-4.244274809160305	-0.38167938931297707	-1.9083969465648853	-1.64167916041979	-0.3568215892053973	-0.6416791604197901	1021.978021978022	99.83734537285157	32.83780827261508	
1.7720175430517805E12	3.369565217391304	2.6956521739130435	11.141304347826086	1.374027528426092	0.17474566128067026	9.826451226810294	4149.450549450549	1693.7728937728937	3.0	0.01531801531801533	65282.60869565212	-4.564885496183206	1.114503816793893	-1.6030534351145038	-1.6356821589205397	-0.37181409295352325	-0.6521739130434783	1024.1758241758241	99.84305937061502	32.83780827261508	
1.7720175430517988E12	3.2717391304347827	2.5760869565217392	11.0	1.2806702573309394	0.011968880909634948	9.67803710353082	4149.450549450549	1694.5054945054944	3.0	0.014874014874014888	67231.34328358203	-4.122137404580153	1.7251908396946565	-1.83206106870229	-1.6341829085457271	-0.36881559220389803	-0.6416791604197901	1035.8974358974358	99.84305937061502	32.83780827261508	
1.772017543051817E12	3.2391304347826084	2.5543478260869565	11.01086956521739	1.2399760622381808	-0.011968880909634948	9.656493117893477	4149.450549450549	1694.5054945054944	3.0	0.014874014874014888	67231.34328358203	-4.534351145038168	1.2671755725190839	-1.83206106870229	-1.6236881559220389	-0.35982008995502246	-0.6476761619190404	1063.7362637362637	99.83734537285157	32.83780827261508	
1.7720175430518352E12	3.2717391304347827	2.5978260869565215	11.108695652173912	1.2830640335128665	0.05505685218432076	9.761819269898265	4149.450549450549	1694.5054945054944	3.0	0.014874014874014888	67231.34328358203	-4.885496183206107	0.4427480916030534	-1.816793893129771	-1.6401799100449774	-0.35532233883058467	-0.6581709145427286	1104.029304029304	99.84591637371317	32.83780827261508	
1.7720175430518535E12	3.2282608695652173	2.5543478260869565	11.032608695652174	1.2519449431478156	0.0	9.72591262716936	4149.450549450549	1694.5054945054944	3.0	0.014874014874014888	67231.34328358203	-4.931297709923664	-0.0916030534351145	-1.8931297709923662	-1.6341829085457271	-0.34182908545727136	-0.6506746626686657	1140.6593406593406	99.83734537285157	32.83780827261508	
1.7720175430518716E12	3.282608695652174	2.532608695652174	11.01086956521739	1.2902453620586476	-0.02154398563734291	9.694793536804308	4149.450549450549	1694.5054945054944	3.0	0.014874014874014888	67231.34328358203	-5.2824427480916025	-0.6106870229007634	-1.648854961832061	-1.6401799100449774	-0.35082458770614694	-0.6416791604197901	1175.8241758241757	99.83448837818628	32.83780827261508	
1.77201754305189E12	3.369565217391304	2.641304347826087	11.195652173913043	1.3764213046080191	0.06941950927588271	9.855176540993417	4142.124542124542	1689.3772893772893	3.0	0.014874014874014888	67231.34328358203	-5.541984732824427	1.2671755725190839	-0.8854961832061068	-1.6476761619190403	-0.328335832083958	-0.6431784107946027	1222.7106227106226	99.83734537285157	32.83780827261508	
1.772017543051908E12	3.260869565217391	2.5978260869565215	11.152173913043478	1.2806702573309394	0.059844404548174746	9.864751645721125	4149.450549450549	1693.040293040293	3.0	0.014874014874014888	67231.34328358203	-5.419847328244274	2.2900763358778624	-1.3282442748091603	-1.6326836581709145	-0.3613193403298351	-0.649175412293853	1285.7142857142856	99.84020237032783	32.83780827261508	
1.7720175430519263E12	3.184782608695652	2.5217391304347827	11.065217391304348	1.2280071813285458	0.02154398563734291	9.802513464991023	4149.450549450549	1693.7728937728937	3.0	0.014874014874014888	67231.34328358203	-5.358778625954198	0.9465648854961831	-2.1068702290076335	-1.6431784107946026	-0.36281859070464767	-0.6446776611694153	1348.7179487179487	99.84305937061502	32.83780827261508	
1.7720175430519446E12	3.2065217391304346	2.543478260869565	11.119565217391305	1.196888090963495	-0.033512866546977854	9.74985038898863	4147.985347985347	1698.9010989010987	3.0	0.014874014874014888	67231.34328358203	-5.236641221374046	-0.3511450381679389	-1.6030534351145038	-1.6371814092953523	-0.3583208395802099	-0.6461769115442278	1402.9304029304028	99.84591637371317	32.83780827261508	
1.7720175430519626E12	3.358695652173913	2.641304347826087	11.26086956521739	1.2998204667863555	0.052663076002393776	9.891083183722321	4149.450549450549	1695.970695970696	3.0	0.014874014874014888	67231.34328358203	-4.763358778625954	0.4427480916030534	-0.9923664122137404	-1.6386806596701649	-0.3523238380809595	-0.6446776611694153	1445.4212454212454	99.84020237032783	32.83780827261508	
1.772017543051981E12	3.3478260869565215	2.5217391304347827	11.16304347826087	1.412327947336924	0.0023937761819269898	9.936564931178934	4124.542124542124	1904.0293040293038	3.0	0.014874014874014888	67231.34328358203	-4.458015267175572	1.4198473282442747	-1.0076335877862594	-1.6356821589205397	-0.35082458770614694	-0.6461769115442278	1482.051282051282	99.83734537285157	32.83780827261508	
1.772017543051999E12	3.2282608695652173	2.4891304347826084	11.08695652173913	1.2758827049670856	-0.059844404548174746	9.797725912627168	4149.450549450549	1752.3809523809523	3.0	0.014874014874014888	67231.34328358203	-4.106870229007633	1.618320610687023	-1.0229007633587786	-1.6401799100449774	-0.3583208395802099	-0.649175412293853	1515.018315018315	99.84305937061502	32.83780827261508	
1.7720175430520173E12	3.282608695652174	2.5543478260869565	11.16304347826087	1.2782764811490126	-0.047875523638539794	9.780969479353681	4147.985347985347	1716.4835164835163	3.0	0.014874014874014888	67231.34328358203	-4.0	0.5343511450381679	-1.465648854961832	-1.64167916041979	-0.36431784107946025	-0.6431784107946027	1541.3919413919414	99.83734537285157	32.83780827261508	
1.7720175430520356E12	3.3804347826086953	2.619565217391304	11.195652173913043	1.3692399760622382	0.06702573309395571	9.895870736086176	4140.65934065934	1689.3772893772893	3.0	0.014874014874014888	67231.34328358203	-4.290076335877862	0.32061068702290074	-1.114503816793893	-1.6356821589205397	-0.3583208395802099	-0.656671664167916	1554.5787545787546	99.84020237032783	32.83780827261508	
1.7720175430520537E12	3.3043478260869565	2.5760869565217392	11.076086956521738	1.3548773189706762	0.05505685218432076	9.807301017354877	4121.611721611721	1895.2380952380952	3.0	0.014874014874014888	67231.34328358203	-4.290076335877862	1.1908396946564885	-1.5725190839694656	-1.6296851574212894	-0.36281859070464767	-0.6371814092953523	1555.311355311355	99.84020237032783	32.83780827261508	
1.772017543052072E12	3.2717391304347827	2.5543478260869565	11.097826086956522	1.2854578096947935	0.0023937761819269898	9.742669060442848	4149.450549450549	1750.9157509157508	3.0	0.014874014874014888	67231.34328358203	-4.137404580152672	1.2213740458015268	-1.450381679389313	-1.6371814092953523	-0.35982008995502246	-0.6401799100449775	1561.1721611721612	99.84305937061502	32.83780827261508	
1.77201754305209E12	3.25	2.6739130434782608	11.130434782608695	1.2495511669658887	0.10293237582286056	9.802513464991023	4149.450549450549	1710.6227106227104	3.0	0.014874014874014888	67231.34328358203	-4.412213740458015	1.465648854961832	-1.5572519083969465	-1.6386806596701649	-0.3493253373313343	-0.6416791604197901	1575.091575091575	99.83897819276258	32.81268279832439	
1.7720175430521084E12	3.282608695652174	2.641304347826087	11.17391304347826	1.2782764811490126	0.1412327947336924	9.905445840813883	4142.124542124542	1694.5054945054944	3.0	0.014874014874014888	67231.34328358203	-4.045801526717557	1.099236641221374	-1.7862595419847327	-1.6296851574212894	-0.3523238380809595	-0.6536731634182908	1586.8131868131868	99.83612130842215	32.81268279832439	
1.7720175430521265E12	3.3369565217391304	2.5543478260869565	11.130434782608695	1.3548773189706762	0.023937761819269897	9.819269898264512	4133.333333333333	1673.260073260073	3.0	0.01531801531801533	65282.60869565212	-4.244274809160305	0.32061068702290074	-1.9236641221374045	-1.6326836581709145	-0.3568215892053973	-0.649175412293853	1584.6153846153845	99.83612130842215	32.81268279832439	
1.7720175430521448E12	3.2282608695652173	2.5543478260869565	11.119565217391305	1.2543387193297426	-0.011968880909634948	9.809694793536805	4149.450549450549	1688.6446886446886	3.0	0.01531801531801533	65282.60869565212	-3.618320610687023	1.618320610687023	-0.9618320610687022	-1.631184407796102	-0.32533733133433285	-0.6476761619190404	1573.6263736263736	99.83612130842215	32.81268279832439	
1.772017543052163E12	3.3478260869565215	2.641304347826087	11.08695652173913	1.3237582286056253	0.06941950927588271	9.764213046080192	4149.450549450549	1693.040293040293	3.0	0.01531801531801533	65282.60869565212	-2.9618320610687023	0.48854961832061067	-1.66412213740458	-1.6356821589205397	-0.35532233883058467	-0.6371814092953523	1561.1721611721612	99.84183507991374	32.81268279832439	
1.7720175430521812E12	3.3369565217391304	2.619565217391304	11.043478260869565	1.3500897666068223	0.12208258527827648	9.728306403351286	4140.65934065934	1682.7838827838827	3.0	0.01531801531801533	65282.60869565212	-3.5267175572519083	1.5419847328244274	-1.8625954198473282	-1.6341829085457271	-0.3613193403298351	-0.6521739130434783	1548.7179487179485	99.83897819276258	32.81268279832439	
1.7720175430521995E12	3.25	2.543478260869565	11.054347826086957	1.2447636146020347	-0.0047875523638539795	9.72591262716936	4149.450549450549	1691.5750915750914	3.0	0.01531801531801533	65282.60869565212	-3.8931297709923665	1.1603053435114503	-1.7862595419847327	-1.6356821589205397	-0.34332833583208394	-0.6551724137931034	1538.4615384615383	99.84183507991374	32.81268279832439	
1.7720175430522175E12	3.2717391304347827	2.532608695652174	11.043478260869565	1.2567324955116697	-0.05026929982046679	9.730700179533214	4149.450549450549	1693.7728937728937	3.0	0.01531801531801533	65282.60869565212	-3.9847328244274807	0.04580152671755725	-2.1068702290076335	-1.6401799100449774	-0.3613193403298351	-0.6446776611694153	1519.4139194139193	99.84469196987563	32.81268279832439	
1.7720175430522358E12	3.369565217391304	2.619565217391304	11.108695652173912	1.362058647516457	0.0933572710951526	9.780969479353681	4149.450549450549	1694.5054945054944	3.0	0.01531801531801533	65282.60869565212	-4.2748091603053435	0.12213740458015267	-2.183206106870229	-1.64167916041979	-0.3493253373313343	-0.649175412293853	1501.098901098901	99.83612130842215	32.81268279832439	
1.7720175430522542E12	3.3043478260869565	2.5760869565217392	11.16304347826087	1.3309395571514062	0.026331538001196888	9.824057450628366	4149.450549450549	1694.5054945054944	3.0	0.01531801531801533	65282.60869565212	-4.488549618320611	0.8549618320610687	-1.9236641221374045	-1.6356821589205397	-0.3493253373313343	-0.6431784107946027	1498.168498168498	99.83612130842215	32.81268279832439	
1.7720175430522722E12	3.1739130434782608	2.5869565217391304	11.08695652173913	1.156193895870736	0.03590664272890485	9.792938360263316	4136.263736263736	1680.5860805860805	3.0	0.01531801531801533	65282.60869565212	-3.969465648854962	0.8702290076335878	-1.8473282442748091	-1.6296851574212894	-0.3538230884557721	-0.6521739130434783	1499.6336996336995	99.84183507991374	32.81268279832439	
1.7720175430522905E12	3.282608695652174	2.652173913043478	11.076086956521738	1.2639138240574506	0.10771992818671454	9.747456612806703	4149.450549450549	1690.10989010989	3.0	0.015762015762015774	63443.66197183094	-3.66412213740458	-0.07633587786259542	-2.4885496183206106	-1.6341829085457271	-0.35982008995502246	-0.6401799100449775	1495.970695970696	99.83897819276258	32.81268279832439	
1.7720175430523086E12	3.293478260869565	2.5760869565217392	11.108695652173912	1.2998204667863555	0.023937761819269897	9.778575703171754	4149.450549450549	1693.040293040293	3.0	0.01531801531801533	65282.60869565212	-4.625954198473282	-0.10687022900763359	-2.0	-1.6401799100449774	-0.3583208395802099	-0.649175412293853	1472.5274725274724	99.84183507991374	32.81268279832439	
1.772017543052327E12	3.2391304347826084	2.5217391304347827	11.119565217391305	1.2591262716935967	-0.031119090365050867	9.790544584081388	4123.076923076923	1896.7032967032965	3.0	0.01531801531801533	65282.60869565212	-4.259541984732825	0.33587786259541985	-1.7251908396946565	-1.6326836581709145	-0.3703148425787106	-0.6401799100449775	1440.2930402930401	99.83897819276258	32.81268279832439	
1.7720175430523452E12	3.282608695652174	2.5978260869565215	11.108695652173912	1.2687013764213046	-0.02872531418312388	9.792938360263316	4149.450549450549	1750.9157509157508	3.0	0.01531801531801533	65282.60869565212	-3.7862595419847325	-0.33587786259541985	-1.6335877862595418	-1.6401799100449774	-0.34632683658170915	-0.6626686656671664	1407.3260073260071	99.83612130842215	32.81268279832439	
1.7720175430523633E12	3.293478260869565	2.6630434782608696	11.119565217391305	1.2974266906044285	0.12447636146020347	9.7737881508079	4149.450549450549	1710.6227106227104	3.0	0.01531801531801533	65282.60869565212	-4.152671755725191	0.6717557251908397	-2.030534351145038	-1.6326836581709145	-0.3448275862068965	-0.6461769115442278	1385.3479853479853	99.84183507991374	32.81268279832439	
1.7720175430523816E12	3.2391304347826084	2.5869565217391304	11.108695652173912	1.2734889287851585	0.09096349491322561	9.776181926989826	4149.450549450549	1698.9010989010987	3.0	0.01531801531801533	65282.60869565212	-4.763358778625954	0.7938931297709924	-2.183206106870229	-1.6341829085457271	-0.3493253373313343	-0.6521739130434783	1371.4285714285713	99.83897819276258	32.81268279832439	
1.7720175430523997E12	3.2391304347826084	2.5543478260869565	11.152173913043478	1.2304009575104728	-0.016756433273488927	9.802513464991023	4142.124542124542	1690.8424908424906	3.0	0.01531801531801533	65282.60869565212	-4.152671755725191	-0.015267175572519083	-2.0610687022900764	-1.6386806596701649	-0.3538230884557721	-0.649175412293853	1349.4505494505493	99.83897819276258	32.81268279832439	
1.772017543052418E12	3.293478260869565	2.630434782608696	11.195652173913043	1.2854578096947935	0.05745062836624776	9.855176540993417	4126.007326007326	1655.6776556776556	3.0	0.01531801531801533	65282.60869565212	-4.1679389312977095	0.38167938931297707	-1.984732824427481	-1.6371814092953523	-0.3658170914542728	-0.664167916041979	1320.8791208791208	99.83897819276258	32.81268279832439	
1.7720175430524363E12	3.2391304347826084	2.641304347826087	11.108695652173912	1.2998204667863555	0.10293237582286056	9.790544584081388	4149.450549450549	1684.249084249084	3.0	0.01531801531801533	65282.60869565212	-4.045801526717557	0.732824427480916	-1.648854961832061	-1.6281859070464768	-0.35982008995502246	-0.6521739130434783	1293.7728937728937	99.84183507991374	32.81268279832439	
1.7720175430524543E12	3.152173913043478	2.5978260869565215	11.076086956521738	1.1490125673249552	0.05505685218432076	9.733093955715141	4149.450549450549	1691.5750915750914	3.0	0.01531801531801533	65282.60869565212	-3.9541984732824424	0.6564885496183206	-2.1221374045801524	-1.6401799100449774	-0.33883058470764615	-0.6581709145427286	1275.4578754578754	99.83612130842215	32.81268279832439	
1.7720175430785735E12	24.48913043478261	24.48913043478261	24.48913043478261	0.0	0.0	-0.00718132854578097	0.0	0.7326007326007326	0.0	125.0	8.0	-15.633587786259541	0.0	-0.24427480916030533	3.790104947526237	0.026986506746626684	-2.995502248875562	4527.472527472527	121.40222435539131	-143.5693755770044	
1.7720175435298977E12	3.358695652173913	2.619565217391304	11.141304347826086	1.3548773189706762	0.08378216636744464	9.86953919808498	4149.450549450549	1690.8424908424906	3.0	0.01531801531801533	65282.60869565212	-4.290076335877862	0.4427480916030534	-1.7404580152671756	-1.6386806596701649	-0.3523238380809595	-0.656671664167916	1232.967032967033	99.84469196987563	32.81268279832439	
1.772017543529916E12	3.2717391304347827	2.510869565217391	11.076086956521738	1.2902453620586476	-0.00718132854578097	9.790544584081388	4149.450549450549	1693.7728937728937	3.0	0.01531801531801533	65282.60869565212	-4.67175572519084	1.2671755725190839	-2.259541984732824	-1.6371814092953523	-0.34182908545727136	-0.656671664167916	1205.128205128205	99.83612130842215	32.81268279832439	
1.772017543529934E12	3.152173913043478	2.5217391304347827	11.08695652173913	1.196888090963495	-0.045481747456612806	9.740275284260921	4149.450549450549	1693.7728937728937	3.0	0.01531801531801533	65282.60869565212	-4.458015267175572	1.3282442748091603	-2.1221374045801524	-1.6401799100449774	-0.3268365817091454	-0.6596701649175412	1190.4761904761904	99.83897819276258	32.81268279832439	
1.7720175435299524E12	3.2065217391304346	2.619565217391304	11.152173913043478	1.187312986235787	0.047875523638539794	9.838420107719928	4147.985347985347	1698.168498168498	3.0	0.014874014874014888	67231.34328358203	-4.152671755725191	0.22900763358778625	-2.33587786259542	-1.6326836581709145	-0.32083958020989506	-0.6446776611694153	1193.4065934065934	99.83897819276258	32.81268279832439	
1.7720175435299707E12	3.282608695652174	2.5760869565217392	11.08695652173913	1.2830640335128665	0.047875523638539794	9.783363255535606	4124.542124542124	1904.7619047619046	3.0	0.01531801531801533	65282.60869565212	-5.038167938931298	-0.7022900763358778	-1.984732824427481	-1.6341829085457271	-0.3313343328335832	-0.6476761619190404	1198.5347985347985	99.83897819276258	32.81268279832439	
1.7720175435299888E12	3.2391304347826084	2.543478260869565	11.097826086956522	1.2327947336923997	-0.0023937761819269898	9.74985038898863	4147.985347985347	1758.2417582417581	3.0	0.01531801531801533	65282.60869565212	-4.534351145038168	0.5190839694656488	-1.83206106870229	-1.6401799100449774	-0.36431784107946025	-0.6506746626686657	1205.128205128205	99.83897819276258	32.81268279832439	
1.772017543530007E12	3.282608695652174	2.608695652173913	11.184782608695652	1.2591262716935967	0.040694195092758824	9.888689407540395	4149.450549450549	1719.4139194139193	3.0	0.014874014874014888	67231.34328358203	-4.564885496183206	1.5572519083969465	-1.7251908396946565	-1.64167916041979	-0.35982008995502246	-0.6536731634182908	1221.9780219780218	99.83897819276258	32.81268279832439	
1.7720175435300251E12	3.25	2.5760869565217392	11.206521739130434	1.2423698384201076	0.04308797127468582	9.883901855176541	4139.194139194139	1689.3772893772893	3.0	0.014874014874014888	67231.34328358203	-4.183206106870228	1.8778625954198473	-1.3893129770992365	-1.6401799100449774	-0.3538230884557721	-0.6506746626686657	1251.2820512820513	99.83897819276258	32.81268279832439	
1.7720175435300435E12	3.2065217391304346	2.510869565217391	11.032608695652174	1.2184320766008379	-0.047875523638539794	9.690005984440454	4120.14652014652	1889.3772893772893	3.0	0.01531801531801533	65282.60869565212	-4.061068702290076	0.24427480916030533	-1.6335877862595418	-1.6401799100449774	-0.35082458770614694	-0.6536731634182908	1282.051282051282	99.85040575823157	32.81268279832439	
1.7720175435300615E12	3.2282608695652173	2.543478260869565	11.130434782608695	1.2256134051466188	-0.00718132854578097	9.780969479353681	4147.985347985347	1753.8461538461538	3.0	0.014874014874014888	67231.34328358203	-3.801526717557252	-0.12213740458015267	-1.465648854961832	-1.64167916041979	-0.34782608695652173	-0.6446776611694153	1305.4945054945053	99.83612130842215	32.81268279832439	
1.7720175435300798E12	3.3804347826086953	2.5543478260869565	11.16304347826087	1.400359066427289	0.011968880909634948	9.864751645721125	4147.985347985347	1716.4835164835163	3.0	0.014874014874014888	67231.34328358203	-3.465648854961832	-0.22900763358778625	-1.099236641221374	-1.64167916041979	-0.35532233883058467	-0.656671664167916	1323.076923076923	99.83897819276258	32.81268279832439	
1.7720175435300981E12	3.293478260869565	2.5	11.065217391304348	1.3046080191502094	-0.052663076002393776	9.721125074805505	4149.450549450549	1700.3663003663003	3.0	0.014874014874014888	67231.34328358203	-3.7404580152671754	1.099236641221374	-1.5419847328244274	-1.6371814092953523	-0.36431784107946025	-0.6386806596701649	1347.2527472527472	99.83897819276258	32.81268279832439	
1.7720175435301162E12	3.217391304347826	2.5869565217391304	11.08695652173913	1.2615200478755235	-0.04308797127468582	9.71873129862358	4140.65934065934	1685.7142857142856	3.0	0.014874014874014888	67231.34328358203	-3.66412213740458	-0.04580152671755725	-1.7557251908396947	-1.6356821589205397	-0.36281859070464767	-0.6521739130434783	1393.4065934065934	99.84183507991374	32.81268279832439	
1.7720175435301345E12	3.3152173913043477	2.641304347826087	11.141304347826086	1.2591262716935967	0.11490125673249552	9.802513464991023	4149.450549450549	1692.3076923076922	3.0	0.014874014874014888	67231.34328358203	-4.65648854961832	-0.42748091603053434	-2.198473282442748	-1.6401799100449774	-0.3613193403298351	-0.6581709145427286	1444.6886446886447	99.83897819276258	32.81268279832439	
1.7720175435301526E12	3.369565217391304	2.5	11.076086956521738	1.381208856971873	-0.00718132854578097	9.824057450628366	4149.450549450549	1693.7728937728937	3.0	0.014874014874014888	67231.34328358203	-4.687022900763359	-0.061068702290076333	-2.381679389312977	-1.6326836581709145	-0.3448275862068965	-0.6446776611694153	1487.9120879120878	99.83326442689247	32.81268279832439	
1.772017543530171E12	3.1630434782608696	2.510869565217391	11.054347826086957	1.2615200478755235	-0.08617594254937164	9.737881508078994	4139.194139194139	1682.051282051282	3.0	0.014874014874014888	67231.34328358203	-4.259541984732825	1.4045801526717556	-2.1068702290076335	-1.6401799100449774	-0.3523238380809595	-0.6536731634182908	1525.2747252747251	99.84183507991374	32.81268279832439	
1.7720175435301892E12	3.152173913043478	2.641304347826087	11.141304347826086	1.1131059245960502	0.07420706163973669	9.80490724117295	4149.450549450549	1690.8424908424906	3.0	0.01531801531801533	65282.60869565212	-4.137404580152672	1.2061068702290076	-2.183206106870229	-1.6341829085457271	-0.3493253373313343	-0.656671664167916	1562.6373626373625	99.83897819276258	32.81268279832439	
1.7720175435302073E12	3.217391304347826	2.543478260869565	11.119565217391305	1.20885697187313	0.052663076002393776	9.850388988629563	4149.450549450549	1693.040293040293	3.0	0.014874014874014888	67231.34328358203	-4.396946564885496	-0.6106870229007634	-1.8778625954198473	-1.6326836581709145	-0.3568215892053973	-0.6611694152923538	1597.069597069597	99.83897819276258	32.81268279832439	
1.7720175435302256E12	3.1739130434782608	2.5217391304347827	11.076086956521738	1.2016756433273488	-0.045481747456612806	9.780969479353681	4123.076923076923	1896.7032967032965	3.0	0.014874014874014888	67231.34328358203	-4.366412213740458	-0.4427480916030534	-1.8015267175572518	-1.6356821589205397	-0.3703148425787106	-0.6521739130434783	1616.8498168498168	99.85040575823157	32.81268279832439	
1.7720175435302437E12	3.184782608695652	2.6630434782608696	11.17391304347826	1.165769000598444	0.05745062836624776	9.819269898264512	4150.91575091575	1757.5091575091574	3.0	0.014874014874014888	67231.34328358203	-4.106870229007633	0.4427480916030534	-1.4045801526717556	-1.6371814092953523	-0.36431784107946025	-0.6401799100449775	1621.9780219780218	99.83897819276258	32.81268279832439	
1.772017543530262E12	3.25	2.630434782608696	11.17391304347826	1.2423698384201076	0.1364452423698384	9.847995212447636	4126.007326007326	1674.7252747252746	3.0	0.01531801531801533	65282.60869565212	-4.091603053435114	0.41221374045801523	-1.0076335877862594	-1.6386806596701649	-0.3583208395802099	-0.6476761619190404	1619.047619047619	99.83326442689247	32.81268279832439	
1.7720175435302803E12	3.184782608695652	2.5	11.08695652173913	1.2304009575104728	-0.026331538001196888	9.747456612806703	4149.450549450549	1689.3772893772893	3.0	0.014874014874014888	67231.34328358203	-4.381679389312977	0.5801526717557252	-1.0229007633587786	-1.6356821589205397	-0.3583208395802099	-0.649175412293853	1611.7216117216117	99.84183507991374	32.81268279832439	
1.7720175435302983E12	3.217391304347826	2.4891304347826084	11.130434782608695	1.2112507480550567	-0.09096349491322561	9.802513464991023	4149.450549450549	1692.3076923076922	3.0	0.01531801531801533	65282.60869565212	-3.969465648854962	0.21374045801526717	-1.5114503816793892	-1.6326836581709145	-0.3583208395802099	-0.6596701649175412	1597.069597069597	99.84183507991374	32.81268279832439	
1.7720175435303167E12	3.3369565217391304	2.630434782608696	11.228260869565217	1.3333333333333333	0.05026929982046679	9.912627169359665	4139.194139194139	1682.051282051282	3.0	0.01531801531801533	65282.60869565212	-3.7709923664122136	-0.5038167938931297	-1.0381679389312977	-1.6401799100449774	-0.35532233883058467	-0.649175412293853	1572.161172161172	99.83612130842215	32.81268279832439	
1.7720175435303347E12	3.3152173913043477	2.5978260869565215	11.119565217391305	1.3476959904248953	0.05026929982046679	9.855176540993417	4149.450549450549	1690.8424908424906	3.0	0.01531801531801533	65282.60869565212	-3.7709923664122136	-0.16793893129770993	-1.1450381679389312	-1.6446776611694152	-0.3238380809595202	-0.6611694152923538	1542.8571428571427	99.84754886264822	32.81268279832439	
1.772017543530353E12	3.2391304347826084	2.532608695652174	11.076086956521738	1.2615200478755235	-0.016756433273488927	9.740275284260921	4149.450549450549	1693.7728937728937	3.0	0.01531801531801533	65282.60869565212	-3.8931297709923665	0.549618320610687	-1.6946564885496183	-1.6371814092953523	-0.36281859070464767	-0.6476761619190404	1522.3443223443223	99.84469196987563	32.81268279832439	
1.7720175435303713E12	3.2282608695652173	2.5760869565217392	11.097826086956522	1.2327947336923997	0.02154398563734291	9.771394374625972	4149.450549450549	1693.7728937728937	3.0	0.01531801531801533	65282.60869565212	-3.801526717557252	0.8244274809160305	-1.8473282442748091	-1.6371814092953523	-0.3658170914542728	-0.649175412293853	1509.1575091575091	99.84183507991374	32.81268279832439	
1.7720175435303894E12	3.260869565217391	2.652173913043478	11.108695652173912	1.2710951526032315	0.09096349491322561	9.776181926989826	4149.450549450549	1693.7728937728937	3.0	0.01531801531801533	65282.60869565212	-3.8625954198473282	-0.04580152671755725	-1.4961832061068703	-1.6371814092953523	-0.3613193403298351	-0.6461769115442278	1494.5054945054944	99.84183507991374	32.81268279832439	
1.7720175435304077E12	3.2391304347826084	2.5760869565217392	11.043478260869565	1.2471573907839617	0.033512866546977854	9.721125074805505	4145.054945054945	1691.5750915750914	3.0	0.01531801531801533	65282.60869565212	-4.351145038167939	0.5038167938931297	-0.8244274809160305	-1.6386806596701649	-0.3583208395802099	-0.6461769115442278	1471.7948717948716	99.83326442689247	32.81268279832439	
1.7720175435304258E12	3.2282608695652173	2.5543478260869565	11.054347826086957	1.2112507480550567	-0.02872531418312388	9.728306403351286	4149.450549450549	1693.7728937728937	3.0	0.01531801531801533	65282.60869565212	-4.366412213740458	0.2748091603053435	-1.2061068702290076	-1.6371814092953523	-0.34782608695652173	-0.6446776611694153	1450.5494505494505	99.82836737493997	32.78253223877982	
1.772017543530444E12	3.260869565217391	2.5869565217391304	11.097826086956522	1.2782764811490126	0.033512866546977854	9.742669060442848	4149.450549450549	1693.7728937728937	3.0	0.01531801531801533	65282.60869565212	-4.290076335877862	-0.1984732824427481	-1.0229007633587786	-1.6296851574212894	-0.32083958020989506	-0.649175412293853	1429.3040293040292	99.83408086254113	32.78253223877982	
1.7720175435304624E12	3.293478260869565	2.608695652173913	11.119565217391305	1.3117893476959903	0.06223818073010173	9.816876122082585	4143.589743589743	1684.249084249084	3.0	0.01531801531801533	65282.60869565212	-4.625954198473282	-0.16793893129770993	-1.099236641221374	-1.6401799100449774	-0.3373313343328336	-0.6476761619190404	1406.5934065934066	99.83693761055738	32.78253223877982	
1.7720175435304805E12	3.3152173913043477	2.5217391304347827	11.065217391304348	1.3237582286056253	-0.040694195092758824	9.761819269898265	4121.611721611721	1893.7728937728937	3.0	0.01531801531801533	65282.60869565212	-4.748091603053435	-0.015267175572519083	-1.1908396946564885	-1.6386806596701649	-0.3538230884557721	-0.6521739130434783	1382.4175824175823	99.83979436138412	32.78253223877982	
1.7720175435304988E12	3.293478260869565	2.532608695652174	11.054347826086957	1.2974266906044285	-0.03590664272890485	9.735487731897067	4147.985347985347	1755.311355311355	3.0	0.015762015762015774	63443.66197183094	-4.778625954198473	0.2748091603053435	-1.5572519083969465	-1.6341829085457271	-0.3568215892053973	-0.6581709145427286	1359.7069597069597	99.83122411733531	32.78253223877982	
1.7720175435305168E12	3.3260869565217392	2.6630434782608696	11.16304347826087	1.3285457809694794	0.047875523638539794	9.766606822262117	4149.450549450549	1712.087912087912	3.0	0.01531801531801533	65282.60869565212	-4.549618320610687	-0.16793893129770993	-1.2671755725190839	-1.6296851574212894	-0.3583208395802099	-0.649175412293853	1340.6593406593406	99.83693761055738	32.78253223877982	
1.7720175435305352E12	3.3478260869565215	2.641304347826087	11.184782608695652	1.3548773189706762	0.12208258527827648	9.874326750448834	4140.65934065934	1687.9120879120878	3.0	0.01531801531801533	65282.60869565212	-5.099236641221374	0.0	-1.3587786259541985	-1.6341829085457271	-0.34782608695652173	-0.6536731634182908	1325.2747252747251	99.83693761055738	32.78253223877982	
1.7720175435305535E12	3.3369565217391304	2.4891304347826084	11.108695652173912	1.3213644524236983	-0.026331538001196888	9.800119688809096	4126.007326007326	1655.6776556776556	3.0	0.01531801531801533	65282.60869565212	-5.404580152671755	0.47328244274809156	-2.381679389312977	-1.6386806596701649	-0.35082458770614694	-0.649175412293853	1309.89010989011	99.83693761055738	32.78253223877982	
1.7720175435305715E12	3.282608695652174	2.5543478260869565	11.152173913043478	1.3070017953321365	-0.08378216636744464	9.790544584081388	4121.611721611721	1884.9816849816848	3.0	0.01531801531801533	65282.60869565212	-5.190839694656488	0.7175572519083969	-2.2442748091603053	-1.6356821589205397	-0.3448275862068965	-0.6596701649175412	1296.7032967032967	99.83693761055738	32.78253223877982	
1.7720175435305898E12	3.2391304347826084	2.6630434782608696	11.217391304347826	1.2615200478755235	0.09814482345900657	9.855176540993417	4147.985347985347	1752.3809523809523	3.0	0.01531801531801533	65282.60869565212	-5.0534351145038165	0.9618320610687022	-1.7251908396946565	-1.64167916041979	-0.35982008995502246	-0.6506746626686657	1280.5860805860805	99.83408086254113	32.78253223877982	
1.772017543530608E12	3.293478260869565	2.5869565217391304	11.152173913043478	1.2854578096947935	0.10053859964093358	9.881508078994614	4133.333333333333	1689.3772893772893	3.0	0.01531801531801533	65282.60869565212	-5.374045801526718	0.38167938931297707	-2.2900763358778624	-1.6431784107946026	-0.35532233883058467	-0.649175412293853	1265.2014652014652	99.84265111502133	32.78253223877982	
1.7720175435306262E12	3.1739130434782608	2.510869565217391	11.08695652173913	1.2399760622381808	-0.026331538001196888	9.780969479353681	4149.450549450549	1693.040293040293	3.0	0.01531801531801533	65282.60869565212	-5.465648854961832	0.5801526717557252	-1.9541984732824427	-1.6386806596701649	-0.36431784107946025	-0.6506746626686657	1252.7472527472526	99.83693761055738	32.78253223877982	
1.7720175435306445E12	3.1956521739130435	2.543478260869565	11.141304347826086	1.170556552962298	-0.033512866546977854	9.814482345900657	4149.450549450549	1694.5054945054944	3.0	0.01531801531801533	65282.60869565212	-5.114503816793893	1.8931297709923662	-1.648854961832061	-1.6386806596701649	-0.36281859070464767	-0.6461769115442278	1241.7582417582416	99.84265111502133	32.78253223877982	
1.7720175435306626E12	3.2282608695652173	2.5543478260869565	11.228260869565217	1.2375822860562538	0.009575104727707959	9.912627169359665	4149.450549450549	1694.5054945054944	3.0	0.01531801531801533	65282.60869565212	-4.6106870229007635	1.4045801526717556	-1.7404580152671756	-1.6296851574212894	-0.3493253373313343	-0.649175412293853	1233.6996336996335	99.8255106353551	32.78253223877982	
1.772017543530681E12	3.217391304347826	2.4782608695652173	11.184782608695652	1.2232196289646917	-0.07660083782166367	9.888689407540395	4149.450549450549	1694.5054945054944	3.0	0.01531801531801533	65282.60869565212	-4.67175572519084	0.8854961832061068	-1.5114503816793892	-1.6341829085457271	-0.3538230884557721	-0.6506746626686657	1224.9084249084249	99.83693761055738	32.78253223877982	
1.772017543530699E12	3.260869565217391	2.5217391304347827	11.17391304347826	1.2399760622381808	-0.08856971873129862	9.831238779174146	4126.007326007326	1656.4102564102564	3.0	0.01531801531801533	65282.60869565212	-4.122137404580153	-0.24427480916030533	-1.4809160305343512	-1.6386806596701649	-0.34782608695652173	-0.6461769115442278	1210.2564102564102	99.84265111502133	32.78253223877982	
1.7720175435307173E12	3.358695652173913	2.641304347826087	11.17391304347826	1.3237582286056253	0.09575104727707959	9.864751645721125	4149.450549450549	1684.249084249084	3.0	0.01531801531801533	65282.60869565212	-3.114503816793893	0.3969465648854962	-1.282442748091603	-1.64167916041979	-0.3523238380809595	-0.6476761619190404	1197.8021978021977	99.83693761055738	32.78253223877982	
1.7720175435307354E12	3.2717391304347827	2.532608695652174	11.08695652173913	1.3285457809694794	0.019150209455415918	9.814482345900657	4149.450549450549	1691.5750915750914	3.0	0.01531801531801533	65282.60869565212	-3.16030534351145	1.1603053435114503	-1.2366412213740459	-1.64167916041979	-0.3583208395802099	-0.6506746626686657	1200.7326007326008	99.83693761055738	32.78253223877982	
1.7720175435307537E12	3.25	2.510869565217391	11.119565217391305	1.2447636146020347	-0.047875523638539794	9.780969479353681	4121.611721611721	1895.2380952380952	3.0	0.01531801531801533	65282.60869565212	-3.0839694656488548	0.7480916030534351	-1.114503816793893	-1.6341829085457271	-0.3523238380809595	-0.6551724137931034	1223.4432234432234	99.8483646307271	32.78253223877982	
1.772017543530772E12	3.358695652173913	2.543478260869565	11.119565217391305	1.362058647516457	-0.009575104727707959	9.824057450628366	4149.450549450549	1750.9157509157508	3.0	0.01531801531801533	65282.60869565212	-3.282442748091603	0.061068702290076333	-1.1450381679389312	-1.6401799100449774	-0.3448275862068965	-0.6521739130434783	1257.8754578754579	99.83979436138412	32.78253223877982	
1.77201754353079E12	3.3478260869565215	2.5760869565217392	11.08695652173913	1.40754039497307	0.026331538001196888	9.790544584081388	4147.985347985347	1715.7509157509157	3.0	0.014874014874014888	67231.34328358203	-3.282442748091603	0.0916030534351145	-1.4351145038167938	-1.6281859070464768	-0.3613193403298351	-0.6446776611694153	1293.7728937728937	99.84265111502133	32.78253223877982	
1.7720175435308083E12	3.260869565217391	2.532608695652174	11.065217391304348	1.2782764811490126	-0.011968880909634948	9.728306403351286	4121.611721611721	1902.5641025641025	3.0	0.014874014874014888	67231.34328358203	-3.5267175572519083	0.3969465648854962	-1.6030534351145038	-1.6401799100449774	-0.36731634182908546	-0.6476761619190404	1328.2051282051282	99.84265111502133	32.78253223877982	
1.7720175435308264E12	3.2391304347826084	2.510869565217391	11.065217391304348	1.2567324955116697	-0.05026929982046679	9.711549970077797	4149.450549450549	1753.113553113553	3.0	0.014874014874014888	67231.34328358203	-4.122137404580153	0.7022900763358778	-1.5114503816793892	-1.6386806596701649	-0.3523238380809595	-0.6446776611694153	1373.6263736263736	99.83408086254113	32.78253223877982	
1.7720175435308447E12	3.3152173913043477	2.608695652173913	11.054347826086957	1.3213644524236983	0.06223818073010173	9.737881508078994	4147.985347985347	1716.4835164835163	3.0	0.014874014874014888	67231.34328358203	-3.8931297709923665	0.061068702290076333	-1.7251908396946565	-1.6446776611694152	-0.3448275862068965	-0.6521739130434783	1430.7692307692307	99.83693761055738	32.78253223877982	
1.772017543530863E12	3.2065217391304346	2.532608695652174	11.08695652173913	1.2615200478755235	0.0	9.764213046080192	4149.450549450549	1701.098901098901	3.0	0.014874014874014888	67231.34328358203	-4.1679389312977095	0.916030534351145	-1.816793893129771	-1.64167916041979	-0.3523238380809595	-0.6461769115442278	1483.5164835164835	99.83693761055738	32.78253223877982	
1.772017543530881E12	3.184782608695652	2.5	11.043478260869565	1.180131657690006	-0.05745062836624776	9.721125074805505	4149.450549450549	1696.7032967032967	3.0	0.014874014874014888	67231.34328358203	-4.702290076335878	0.8396946564885496	-2.0763358778625953	-1.64167916041979	-0.36431784107946025	-0.6521739130434783	1531.135531135531	99.84550787146898	32.78253223877982	
1.7720175435308994E12	3.3043478260869565	2.641304347826087	11.054347826086957	1.199281867145422	0.02872531418312388	9.716337522441652	4131.868131868132	1666.6666666666665	3.0	0.014874014874014888	67231.34328358203	-4.152671755725191	-0.2595419847328244	-1.6335877862595418	-1.6386806596701649	-0.3613193403298351	-0.6461769115442278	1571.4285714285713	99.83122411733531	32.78253223877982	
1.7720175435309175E12	3.260869565217391	2.5978260869565215	11.097826086956522	1.3141831238779174	0.0718132854578097	9.745062836624776	4149.450549450549	1687.179487179487	3.0	0.014874014874014888	67231.34328358203	-4.519083969465648	0.41221374045801523	-1.9236641221374045	-1.6386806596701649	-0.3448275862068965	-0.6611694152923538	1605.128205128205	99.84265111502133	32.78253223877982	
1.7720175435309358E12	3.1304347826086953	2.543478260869565	11.043478260869565	1.163375224416517	0.01436265709156194	9.776181926989826	4150.91575091575	1691.5750915750914	3.0	0.014874014874014888	67231.34328358203	-4.916030534351145	1.4961832061068703	-1.66412213740458	-1.6356821589205397	-0.3523238380809595	-0.6551724137931034	1632.9670329670328	99.83693761055738	32.78253223877982	
1.772017543530954E12	3.282608695652174	2.5978260869565215	11.097826086956522	1.168162776780371	0.0	9.716337522441652	4149.450549450549	1693.7728937728937	3.0	0.014874014874014888	67231.34328358203	-4.763358778625954	-0.3969465648854962	-1.2366412213740459	-1.6341829085457271	-0.3448275862068965	-0.6581709145427286	1651.2820512820513	99.83979436138412	32.78253223877982	
1.7720175435309722E12	3.3804347826086953	2.5978260869565215	11.206521739130434	1.3692399760622382	0.06702573309395571	9.802513464991023	4136.263736263736	1680.5860805860805	3.0	0.014874014874014888	67231.34328358203	-4.885496183206107	-0.42748091603053434	-0.8396946564885496	-1.6371814092953523	-0.35082458770614694	-0.6506746626686657	1665.9340659340658	99.83408086254113	32.78253223877982	
1.7720175435309905E12	3.25	2.532608695652174	11.228260869565217	1.3285457809694794	0.026331538001196888	9.910233393177737	4149.450549450549	1690.8424908424906	3.0	0.014874014874014888	67231.34328358203	-5.49618320610687	1.0381679389312977	-1.3587786259541985	-1.6341829085457271	-0.3538230884557721	-0.6446776611694153	1667.3992673992673	99.83979436138412	32.78253223877982	
1.7720175435310085E12	3.2391304347826084	2.5	11.152173913043478	1.2280071813285458	-0.011968880909634948	9.855176540993417	4149.450549450549	1693.040293040293	3.0	0.01531801531801533	65282.60869565212	-5.221374045801526	1.3893129770992365	-1.7862595419847327	-1.6371814092953523	-0.3658170914542728	-0.6596701649175412	1654.212454212454	99.83979436138412	32.78253223877982	
1.7720175435310269E12	3.3369565217391304	2.543478260869565	11.206521739130434	1.3261520047875524	-0.033512866546977854	9.888689407540395	4149.450549450549	1693.7728937728937	3.0	0.01531801531801533	65282.60869565212	-4.900763358778626	-0.07633587786259542	-1.66412213740458	-1.6326836581709145	-0.34632683658170915	-0.6581709145427286	1632.2344322344322	99.83979436138412	32.78253223877982	
1.7720175435310452E12	3.25	2.543478260869565	11.184782608695652	1.3046080191502094	-0.01436265709156194	9.891083183722321	4123.076923076923	1897.4358974358972	3.0	0.014874014874014888	67231.34328358203	-4.625954198473282	0.8854961832061068	-2.351145038167939	-1.6341829085457271	-0.3568215892053973	-0.6476761619190404	1603.6630036630036	99.83693761055738	32.78253223877982	
1.7720175435310632E12	3.1956521739130435	2.532608695652174	11.141304347826086	1.180131657690006	0.0023937761819269898	9.867145421903052	4150.91575091575	1757.5091575091574	3.0	0.01531801531801533	65282.60869565212	-4.458015267175572	1.3282442748091603	-2.4122137404580153	-1.6356821589205397	-0.3523238380809595	-0.656671664167916	1572.8937728937728	99.84265111502133	32.78253223877982	
1.7720175435310815E12	3.282608695652174	2.5217391304347827	11.152173913043478	1.2567324955116697	-0.05745062836624776	9.802513464991023	4149.450549450549	1712.8205128205127	3.0	0.01531801531801533	65282.60869565212	-4.290076335877862	0.015267175572519083	-2.1374045801526718	-1.6431784107946026	-0.3583208395802099	-0.6416791604197901	1545.054945054945	99.84265111502133	32.78253223877982	
1.7720175435310996E12	3.3478260869565215	2.5652173913043477	11.17391304347826	1.3261520047875524	0.0	9.82166367444644	4121.611721611721	1901.8315018315018	3.0	0.01531801531801533	65282.60869565212	-3.5877862595419847	-0.2595419847328244	-1.8473282442748091	-1.6371814092953523	-0.3238380809595202	-0.649175412293853	1517.216117216117	99.83693761055738	32.78253223877982	
1.772017543531118E12	3.293478260869565	2.5652173913043477	11.108695652173912	1.3093955715140635	0.0047875523638539795	9.819269898264512	4149.450549450549	1752.3809523809523	3.0	0.01531801531801533	65282.60869565212	-4.030534351145038	0.6106870229007634	-1.5267175572519083	-1.6341829085457271	-0.36881559220389803	-0.6596701649175412	1482.051282051282	99.83693761055738	32.78253223877982	
1.7720175435311362E12	3.2065217391304346	2.467391304347826	11.054347826086957	1.2208258527827647	-0.05745062836624776	9.711549970077797	4146.520146520146	1709.8901098901097	3.0	0.01531801531801533	65282.60869565212	-4.3206106870229	1.816793893129771	-1.4045801526717556	-1.631184407796102	-0.3403298350824588	-0.6476761619190404	1449.8168498168498	99.83122411733531	32.78253223877982	
1.7720175435311543E12	3.2391304347826084	2.5	11.130434782608695	1.2232196289646917	-0.08856971873129862	9.766606822262117	4121.611721611721	1901.098901098901	3.0	0.01531801531801533	65282.60869565212	-4.229007633587786	0.41221374045801523	-2.6412213740458013	-1.6371814092953523	-0.36431784107946025	-0.6521739130434783	1419.047619047619	99.84550787146898	32.78253223877982	
1.7720175435311726E12	3.25	2.5543478260869565	11.17391304347826	1.2351885098743267	-0.0023937761819269898	9.85996409335727	4149.450549450549	1752.3809523809523	3.0	0.01531801531801533	65282.60869565212	-4.198473282442748	-0.061068702290076333	-2.1374045801526718	-1.6386806596701649	-0.35082458770614694	-0.6506746626686657	1381.6849816849815	99.84265111502133	32.78253223877982	
1.7720175435311907E12	3.260869565217391	2.5	11.130434782608695	1.2734889287851585	-0.031119090365050867	9.809694793536805	4128.937728937729	1681.3186813186812	3.0	0.01531801531801533	65282.60869565212	-3.679389312977099	0.13740458015267176	-2.2748091603053435	-1.6371814092953523	-0.35532233883058467	-0.6476761619190404	1336.9963369963368	99.84265111502133	32.78253223877982	
1.772017543531209E12	3.2391304347826084	2.5652173913043477	11.130434782608695	1.2375822860562538	-0.009575104727707959	9.795332136445243	4149.450549450549	1691.5750915750914	3.0	0.01531801531801533	65282.60869565212	-3.4351145038167936	1.1450381679389312	-1.7251908396946565	-1.631184407796102	-0.34782608695652173	-0.6596701649175412	1301.098901098901	99.8483646307271	32.78253223877982	
1.7720175435312273E12	3.2391304347826084	2.5869565217391304	11.16304347826087	1.2208258527827647	0.03590664272890485	9.812088569718732	4147.985347985347	1698.168498168498	3.0	0.01531801531801533	65282.60869565212	-3.3893129770992365	0.5190839694656488	-1.1755725190839694	-1.631184407796102	-0.3523238380809595	-0.6596701649175412	1273.260073260073	99.83122411733531	32.78253223877982	
1.7720175435312454E12	3.2391304347826084	2.5760869565217392	11.130434782608695	1.2232196289646917	0.03590664272890485	9.795332136445243	4146.520146520146	1693.7728937728937	3.0	0.01531801531801533	65282.60869565212	-3.633587786259542	0.22900763358778625	-0.9007633587786259	-1.6341829085457271	-0.3583208395802099	-0.656671664167916	1244.6886446886447	99.83693761055738	32.78253223877982	
1.7720175435312637E12	3.2717391304347827	2.4891304347826084	11.130434782608695	1.2639138240574506	-0.08856971873129862	9.792938360263316	4147.985347985347	1699.6336996336995	3.0	0.015762015762015774	63443.66197183094	-3.5267175572519083	-0.13740458015267176	-0.9465648854961831	-1.6341829085457271	-0.3583208395802099	-0.649175412293853	1216.117216117216	99.83979436138412	32.78253223877982	
1.7720175435312817E12	3.3043478260869565	2.5543478260869565	11.119565217391305	1.3093955715140635	-0.023937761819269897	9.790544584081388	4145.054945054945	1692.3076923076922	3.0	0.015762015762015774	63443.66197183094	-3.4045801526717554	0.42748091603053434	-0.9618320610687022	-1.6371814092953523	-0.36881559220389803	-0.6521739130434783	1189.7435897435896	99.83693761055738	32.78253223877982	
1.7720175435313E12	3.282608695652174	2.5869565217391304	11.130434782608695	1.2902453620586476	0.06223818073010173	9.795332136445243	4149.450549450549	1693.7728937728937	3.0	0.015762015762015774	63443.66197183094	-3.5877862595419847	0.5343511450381679	-1.7251908396946565	-1.6371814092953523	-0.36731634182908546	-0.6656671664167916	1181.6849816849815	99.83693761055738	32.78253223877982	
1.7720175435313184E12	3.2065217391304346	2.5543478260869565	11.08695652173913	1.2854578096947935	0.0047875523638539795	9.769000598444045	4147.985347985347	1699.6336996336995	3.0	0.015762015762015774	63443.66197183094	-3.679389312977099	0.21374045801526717	-1.8931297709923662	-1.6356821589205397	-0.3538230884557721	-0.6431784107946027	1187.5457875457876	99.83693761055738	32.78253223877982	
1.7720175435313364E12	3.25	2.5217391304347827	11.054347826086957	1.2304009575104728	-0.031119090365050867	9.764213046080192	4128.937728937729	1665.9340659340658	3.0	0.015762015762015774	63443.66197183094	-4.2748091603053435	-0.42748091603053434	-1.7099236641221374	-1.64167916041979	-0.3493253373313343	-0.6536731634182908	1193.4065934065934	99.83979436138412	32.78253223877982	
1.7720175439354744E12	302.67391304347825	102.55434782608695	155.19565217391303	-17.15858767205266	-8.032914422501497	19.605026929982046	6007.326007326007	47644.68864468864	3.0	1.2909312909312909	774.63456577816	144.59541984732823	238.42748091603053	-23.450381679389313	-15.014992503748125	-6.380809595202399	19.62968515742129	17072.527472527472	91.2706054143471	-141.59850989570842	
1.7720175440087798E12	3.184782608695652	2.5760869565217392	11.097826086956522	1.2710951526032315	0.026331538001196888	9.780969479353681	4149.450549450549	1692.3076923076922	3.0	0.01531801531801533	65282.60869565212	-4.641221374045801	1.8473282442748091	-1.5877862595419847	-1.631184407796102	-0.3193403298350824	-0.656671664167916	1197.069597069597	99.8381618453987	32.772482054593276	
1.772017544008798E12	3.184782608695652	2.5652173913043477	11.043478260869565	1.172950329144225	0.023937761819269897	9.735487731897067	4147.985347985347	1698.168498168498	3.0	0.01531801531801533	65282.60869565212	-4.595419847328244	0.0	-1.282442748091603	-1.6386806596701649	-0.3568215892053973	-0.6536731634182908	1226.3736263736264	99.8381618453987	32.772482054593276	
1.7720175440088162E12	3.293478260869565	2.543478260869565	11.141304347826086	1.2639138240574506	0.0047875523638539795	9.766606822262117	4149.450549450549	1695.2380952380952	3.0	0.01531801531801533	65282.60869565212	-5.083969465648854	-0.32061068702290074	-1.114503816793893	-1.631184407796102	-0.3658170914542728	-0.6506746626686657	1268.8644688644688	99.84673197560711	32.772482054593276	
1.7720175440088345E12	3.3043478260869565	2.510869565217391	11.119565217391305	1.3213644524236983	-0.016756433273488927	9.809694793536805	4149.450549450549	1694.5054945054944	3.0	0.015762015762015774	63443.66197183094	-5.099236641221374	1.297709923664122	-1.0381679389312977	-1.631184407796102	-0.35532233883058467	-0.649175412293853	1306.9597069597069	99.83530514094998	32.772482054593276	
1.7720175440088525E12	3.260869565217391	2.467391304347826	11.119565217391305	1.2687013764213046	-0.04308797127468582	9.80490724117295	4123.076923076923	1896.7032967032965	3.0	0.01531801531801533	65282.60869565212	-4.885496183206107	1.1908396946564885	-1.4961832061068703	-1.6341829085457271	-0.3493253373313343	-0.6446776611694153	1341.3919413919414	99.8410185526578	32.772482054593276	
1.7720175440088708E12	3.3804347826086953	2.4565217391304346	11.184782608695652	1.3644524236983842	-0.12926391382405744	9.833632555356074	4149.450549450549	1750.9157509157508	3.0	0.01531801531801533	65282.60869565212	-4.687022900763359	1.129770992366412	-1.5725190839694656	-1.6356821589205397	-0.3493253373313343	-0.6521739130434783	1380.2197802197802	99.84958869129733	32.772482054593276	
1.7720175440088892E12	3.3478260869565215	2.543478260869565	11.293478260869565	1.3572710951526032	-0.031119090365050867	9.97247157390784	4130.40293040293	1687.179487179487	3.0	0.01531801531801533	65282.60869565212	-4.99236641221374	1.6030534351145038	-0.5190839694656488	-1.6356821589205397	-0.35982008995502246	-0.6431784107946027	1420.5128205128203	99.84673197560711	32.772482054593276	
1.7720175440089072E12	3.3369565217391304	2.4456521739130435	11.228260869565217	1.3596648713345303	-0.12208258527827648	9.94853381208857	4150.91575091575	1699.6336996336995	3.0	0.01531801531801533	65282.60869565212	-5.236641221374046	2.1068702290076335	-0.5038167938931297	-1.6371814092953523	-0.34332833583208394	-0.6551724137931034	1462.2710622710622	99.84387526272728	32.772482054593276	
1.7720175440089255E12	3.391304347826087	2.4456521739130435	11.206521739130434	1.402752842609216	-0.1412327947336924	9.879114302812686	4150.91575091575	1702.5641025641025	3.0	0.01531801531801533	65282.60869565212	-4.122137404580153	2.33587786259542	-0.5343511450381679	-1.6356821589205397	-0.35982008995502246	-0.6476761619190404	1504.7619047619046	99.84673197560711	32.772482054593276	
1.7720175440089436E12	3.3478260869565215	2.467391304347826	11.304347826086957	1.374027528426092	-0.12447636146020347	9.970077797725912	4123.076923076923	1899.6336996336995	3.0	0.01531801531801533	65282.60869565212	-3.679389312977099	3.114503816793893	-0.6259541984732824	-1.6356821589205397	-0.35982008995502246	-0.6461769115442278	1553.113553113553	99.82959174048369	32.772482054593276	
1.772017544008962E12	3.3478260869565215	2.467391304347826	11.369565217391305	1.3500897666068223	-0.07660083782166367	10.070616397366846	4128.937728937729	1721.6117216117216	3.0	0.01531801531801533	65282.60869565212	-3.541984732824427	2.1374045801526718	-0.7633587786259541	-1.6296851574212894	-0.34332833583208394	-0.6551724137931034	1598.5347985347985	99.8381618453987	32.772482054593276	
1.7720175440089802E12	3.3804347826086953	2.4565217391304346	11.195652173913043	1.414721723518851	-0.08378216636744464	9.922202274087372	4149.450549450549	1702.5641025641025	3.0	0.014874014874014888	67231.34328358203	-3.2519083969465647	1.6946564885496183	-0.5954198473282443	-1.6386806596701649	-0.3568215892053973	-0.656671664167916	1633.6996336996335	99.8381618453987	32.772482054593276	
1.7720175440089983E12	3.4239130434782608	2.3260869565217392	11.076086956521738	1.4314781567923398	-0.23219628964691802	9.7737881508079	4149.450549450549	1696.7032967032967	3.0	0.012654012654012677	79026.31578947355	-0.4427480916030534	3.5725190839694654	-3.068702290076336	-1.6356821589205397	-0.34782608695652173	-0.6506746626686657	1719.4139194139193	99.83244843931166	32.772482054593276	
1.7720175440090166E12	2.6956521739130435	2.75	10.793478260869565	0.7588270496708558	0.20347097546379414	9.560742070616397	4149.450549450549	1695.2380952380952	3.0	0.012210012210012234	81899.99999999984	-7.786259541984733	0.04580152671755725	14.473282442748092	-1.6341829085457271	-0.3268365817091454	-0.6551724137931034	1870.3296703296703	99.83530514094998	32.772482054593276	
