Shimmer_A679_TimestampSync_Unix_CAL,Shimmer_A679_Accel_LN_X_CAL,Shimmer_A679_Accel_LN_Y_CAL,Shimmer_A679_Accel_LN_Z_CAL,Shimmer_A679_Accel_WR_X_CAL,Shimmer_A679_Accel_WR_Y_CAL,Shimmer_A679_Accel_WR_Z_CAL,Shimmer_A679_Battery_CAL,Shimmer_A679_Ext_Exp_A15_CAL,Shimmer_A679_GSR_Range_CAL,Shimmer_A679_GSR_Skin_Conductance_CAL,Shimmer_A679_GSR_Skin_Resistance_CAL,Shimmer_A679_Gyro_X_CAL,Shimmer_A679_Gyro_Y_CAL,Shimmer_A679_Gyro_Z_CAL,Shimmer_A679_Mag_X_CAL,Shimmer_A679_Mag_Y_CAL,Shimmer_A679_Mag_Z_CAL,Shimmer_A679_PPG_A13_CAL,Shimmer_A679_Pressure_BMP280_CAL,Shimmer_A679_Temperature_BMP280_CAL,Unnamed: 21
1770981350019.332,3.891304347826087,-6.956521739130435,2.2717391304347827,1.65409934171155,-10.38420107719928,0.03590664272890485,4105.494505494506,1879.120879120879,2.0,3.051282051282051,327.7310924369748,20.702290076335878,-30.0,-65.77099236641222,-0.896551724137931,0.1199400299850075,-0.5067466266866567,1314.2857142857142,97.08020480702179,29.948426423087948,
1770981350038.863,4.010869565217392,-7.141304347826087,1.7282608695652173,1.9916217833632555,-10.604428485936564,-0.48354278874925194,4102.5641025641025,1918.6813186813185,2.0,3.051282051282051,327.7310924369748,14.229007633587786,-24.366412213740457,-69.26717557251908,-0.8980509745127436,0.11244377811094453,-0.4977511244377811,1309.1575091575091,97.07452195771296,29.948426423087948,
1770981350058.3943,3.9891304347826084,-7.0,1.3804347826086956,1.9652902453620587,-10.604428485936564,-0.9790544584081388,4127.472527472527,1726.007326007326,2.0,3.0498168498168496,327.8885419168869,14.687022900763358,-15.190839694656487,-73.8473282442748,-0.9040479760119939,0.13193403298350825,-0.512743628185907,1341.3919413919414,97.07452195771296,29.948426423087948,
1770981350077.9253,4.108695652173913,-6.739130434782608,1.1739130434782608,2.0179533213644523,-10.300418910831837,-1.172950329144225,4126.007326007326,1665.201465201465,2.0,3.0498168498168496,327.8885419168869,14.534351145038167,-0.7175572519083969,-74.99236641221374,-0.9070464767616192,0.13343328335832083,-0.5082458770614693,1397.069597069597,97.07736338097453,29.948426423087948,
1770981350097.4563,4.076086956521739,-6.673913043478261,1.1195652173913042,2.104129263913824,-10.166367444643926,-1.3668461998803112,4128.937728937729,1655.6776556776556,2.0,3.0498168498168496,327.8885419168869,15.633587786259541,12.15267175572519,-76.56488549618321,-0.9130434782608695,0.0944527736131934,-0.5082458770614693,1446.8864468864467,97.08020480702179,29.948426423087948,
1770981350116.9875,4.010869565217392,-6.576086956521739,1.2608695652173914,1.9820466786355475,-10.061041292639137,-1.2280071813285458,4104.029304029304,1861.5384615384614,2.0,3.0498168498168496,327.8885419168869,18.717557251908396,21.51145038167939,-73.41984732824427,-0.9205397301349325,0.11244377811094453,-0.5157421289355322,1486.4468864468863,97.08020480702179,29.948426423087948,
1770981350136.5186,4.021739130434782,-6.3478260869565215,1.5543478260869565,1.9940155595451825,-9.824057450628366,-0.93836026331538,4126.007326007326,1702.5641025641025,2.0,3.0498168498168496,327.8885419168869,21.51145038167939,29.221374045801525,-67.57251908396947,-0.9295352323838081,0.10794602698650674,-0.5187406296851574,1514.2857142857142,97.08020480702179,29.948426423087948,
1770981350156.0498,3.7282608695652173,-6.163043478260869,1.7934782608695652,1.7618192698982644,-9.560742070616397,-0.6319569120287253,4127.472527472527,1665.201465201465,2.0,3.0498168498168496,327.8885419168869,20.12213740458015,28.519083969465647,-61.81679389312977,-0.9400299850074962,0.12593703148425786,-0.52023988005997,1521.6117216117216,97.08588766747336,29.948426423087948,
1770981350175.5808,3.391304347826087,-6.0,2.010869565217391,1.2974266906044285,-9.419509275882705,-0.36624775583482944,4104.029304029304,1864.4688644688642,2.0,3.0498168498168496,327.8885419168869,18.396946564885496,20.610687022900763,-55.43511450381679,-0.9415292353823088,0.09295352323838081,-0.5292353823088456,1515.7509157509157,97.08020480702179,29.948426423087948,
1770981350195.112,3.4891304347826084,-5.706521739130435,2.010869565217391,1.3572710951526032,-9.081986834231,-0.34230999401555956,4101.098901098901,1919.4139194139193,2.0,3.0498168498168496,327.8885419168869,15.83206106870229,12.229007633587786,-47.221374045801525,-0.944527736131934,0.08695652173913043,-0.5337331334332833,1493.040293040293,97.08304623585474,29.948426423087948,
1770981350214.643,3.4130434782608696,-5.5,2.282608695652174,1.3405146618791142,-8.797127468581687,-0.11490125673249552,4127.472527472527,1726.007326007326,2.0,3.0498168498168496,327.8885419168869,10.305343511450381,3.49618320610687,-41.20610687022901,-0.9490254872563718,0.09295352323838081,-0.5427286356821589,1456.4102564102564,97.08304623585474,29.948426423087948,
1770981350234.174,3.402173913043478,-5.739130434782608,2.3260869565217392,1.2926391382405744,-9.014961101137043,0.019150209455415918,4127.472527472527,1671.7948717948716,2.0,3.0498168498168496,327.8885419168869,1.1755725190839694,-5.511450381679389,-35.908396946564885,-0.9565217391304347,0.10044977511244378,-0.5307346326836582,1417.5824175824175,97.08225013494354,29.94340149499476,
1770981350253.705,3.652173913043478,-6.043478260869565,2.260869565217391,1.5248354278874925,-9.400359066427288,-0.06463195691202872,4127.472527472527,1656.4102564102564,2.0,3.0498168498168496,327.8885419168869,-1.7251908396946565,-9.618320610687023,-32.274809160305345,-0.9475262368815592,0.09295352323838081,-0.5307346326836582,1372.161172161172,97.07940872923737,29.94340149499476,
1770981350273.2363,3.9565217391304346,-6.043478260869565,2.0760869565217392,1.9126271693596648,-9.405146618791143,-0.26570915619389585,4128.937728937729,1652.7472527472526,2.0,3.0498168498168496,327.8885419168869,-3.7862595419847325,-2.213740458015267,-27.19083969465649,-0.9505247376311844,0.0944527736131934,-0.5352323838080959,1325.2747252747251,97.07940872923737,29.94340149499476,
1770981350292.7676,4.206521739130435,-6.065217391304348,1.8804347826086956,2.1017354877318972,-9.397965290245361,-0.4069419509275883,4099.6336996336995,1854.212454212454,2.0,3.0498168498168496,327.8885419168869,-5.2824427480916025,12.99236641221374,-21.00763358778626,-0.95952023988006,0.08245877061469264,-0.527736131934033,1293.040293040293,97.08225013494354,29.94340149499476,
1770981350312.2986,4.043478260869565,-6.076086956521739,1.8804347826086956,2.130460801915021,-9.469778575703172,-0.4859365649311789,4127.472527472527,1706.227106227106,2.0,3.0498168498168496,327.8885419168869,-4.763358778625954,26.931297709923662,-15.389312977099236,-0.9490254872563718,0.09295352323838081,-0.5262368815592203,1281.3186813186812,97.08509154343534,29.94340149499476,
1770981350331.8296,3.858695652173913,-5.771739130434782,2.032608695652174,1.917414721723519,-9.340514661879114,-0.46199880311190905,4104.029304029304,1870.3296703296703,2.0,3.0498168498168496,327.8885419168869,-2.5343511450381677,34.2442748091603,-12.183206106870228,-0.9535232383808095,0.09745127436281859,-0.5517241379310345,1294.5054945054944,97.07656732631685,29.94340149499476,
1770981350351.3608,3.869565217391304,-5.413043478260869,2.1956521739130435,1.8192698982645121,-8.868940754039498,-0.2848593656493118,4128.937728937729,1712.8205128205127,2.0,3.0498168498168496,327.8885419168869,-4.564885496183206,39.43511450381679,-8.259541984732824,-0.9655172413793103,0.08695652173913043,-0.5412293853073463,1320.8791208791208,97.07940872923737,29.94340149499476,
1770981350370.8918,3.4891304347826084,-5.282608695652174,2.608695652173913,1.620586475164572,-8.62716935966487,0.10532615200478755,4127.472527472527,1668.131868131868,2.0,3.051282051282051,327.7310924369748,-9.862595419847327,36.54961832061068,-1.4045801526717556,-0.9655172413793103,0.08095952023988005,-0.5397301349325337,1332.6007326007325,97.08509154343534,29.94340149499476,
1770981350390.4229,3.0543478260869565,-5.195652173913043,2.880434782608696,1.0604428485936566,-8.519449431478156,0.4907241172950329,4127.472527472527,1654.9450549450548,2.0,3.051282051282051,327.7310924369748,-15.526717557251908,23.78625954198473,6.244274809160305,-0.95952023988006,0.08095952023988005,-0.5337331334332833,1343.5897435897434,97.07940872923737,29.94340149499476,
1770981350409.954,3.2065217391304346,-5.163043478260869,2.9130434782608696,1.0125673249551166,-8.433273488928785,0.6032315978456014,4101.098901098901,1860.8058608058607,2.0,3.051282051282051,327.7310924369748,-22.732824427480914,9.587786259541984,12.030534351145038,-0.9610194902548725,0.08245877061469264,-0.5517241379310345,1369.9633699633698,97.07940872923737,29.94340149499476,
1770981350429.485,3.369565217391304,-5.260869565217392,2.902173913043478,1.2040694195092758,-8.457211250748054,0.6750448833034112,4105.494505494506,1920.8791208791208,2.0,3.051282051282051,327.7310924369748,-29.877862595419845,-4.122137404580153,18.68702290076336,-0.9460269865067465,0.07946026986506746,-0.5442278860569715,1422.7106227106226,97.07940872923737,29.94340149499476,
1770981350449.0164,3.4565217391304346,-5.413043478260869,2.9565217391304346,1.2830640335128665,-8.641532016756432,0.6822262118491921,4101.098901098901,1936.263736263736,2.0,3.0527472527472526,327.5737940964723,-32.62595419847328,-17.022900763358777,26.0,-0.9625187406296851,0.08695652173913043,-0.5442278860569715,1506.9597069597069,97.07940872923737,29.94340149499476,
1770981350468.5474,3.6304347826086953,-5.630434782608695,3.010869565217391,1.5008976660682225,-8.859365649311789,0.703770197486535,4127.472527472527,1731.135531135531,2.0,3.0527472527472526,327.5737940964723,-37.725190839694655,-28.442748091603054,34.274809160305345,-0.9535232383808095,0.09295352323838081,-0.5262368815592203,1605.128205128205,97.08225013494354,29.94340149499476,
1770981350488.0784,3.793478260869565,-5.760869565217392,3.032608695652174,1.6756433273488929,-9.050867743865949,0.7636146020347098,4105.494505494506,1884.249084249084,2.0,3.0527472527472526,327.5737940964723,-39.70992366412214,-37.31297709923664,39.664122137404576,-0.9490254872563718,0.08995502248875561,-0.5232383808095952,1685.7142857142856,97.08225013494354,29.94340149499476,
1770981350507.6096,3.9130434782608696,-6.076086956521739,3.0217391304347827,1.8049072411729503,-9.350089766606821,0.7875523638539796,4102.5641025641025,1920.8791208791208,2.0,3.0542124542124545,327.4166466778604,-42.854961832061065,-44.06106870229007,45.48091603053435,-0.9535232383808095,0.10794602698650674,-0.512743628185907,1728.937728937729,97.08225013494354,29.94340149499476,
1770981350527.1406,3.9456521739130435,-6.445652173913043,2.9456521739130435,1.9030520646319569,-9.769000598444045,0.7253141831238779,4128.937728937729,1727.4725274725274,2.0,3.0556776556776555,327.2596499640374,-42.717557251908396,-51.282442748091604,49.77099236641221,-0.9385307346326837,0.095952023988006,-0.5037481259370314,1736.263736263736,97.07940872923737,29.94340149499476,
1770981350546.672,3.967391304347826,-6.6521739130434785,2.8478260869565215,1.9365649311789348,-10.056253740275285,0.6104129263913823,4126.007326007326,1665.9340659340658,2.0,3.0542124542124545,327.4166466778604,-40.87022900763358,-58.6412213740458,51.786259541984734,-0.9340329835082458,0.095952023988006,-0.5172413793103449,1705.4945054945053,97.07656732631685,29.94340149499476,
1770981350566.203,4.141304347826087,-6.739130434782608,2.5978260869565215,2.084979054458408,-10.192698982645123,0.38061041292639136,4128.937728937729,1655.6776556776556,2.0,3.0556776556776555,327.2596499640374,-37.343511450381676,-65.14503816793894,50.778625954198475,-0.9280359820089955,0.10344827586206896,-0.5067466266866567,1639.5604395604394,97.08225013494354,29.94340149499476,
1770981350585.734,4.271739130434782,-6.815217391304348,2.4130434782608696,2.2716935966487135,-10.27408737283064,0.15080789946140036,4127.472527472527,1652.0146520146518,2.0,3.0556776556776555,327.2596499640374,-34.29007633587786,-68.42748091603053,50.0,-0.9190404797601199,0.12743628185907047,-0.4932533733133433,1559.7069597069597,97.07940872923737,29.94340149499476,
1770981350605.2651,4.391304347826087,-6.913043478260869,2.2282608695652173,2.391382405745063,-10.369838420107719,-0.07660083782166367,4128.937728937729,1652.0146520146518,2.0,3.0556776556776555,327.2596499640374,-30.35114503816794,-68.1526717557252,48.412213740458014,-0.9100449775112444,0.11544227886056971,-0.4752623688155922,1479.120879120879,97.08793295471278,29.94340149499476,
1770981350624.796,4.5978260869565215,-6.945652173913043,2.2065217391304346,2.597247157390784,-10.444045481747457,-0.12687013764213045,4131.868131868132,1653.4798534798533,2.0,3.0556776556776555,327.2596499640374,-25.557251908396946,-63.862595419847324,45.02290076335878,-0.9100449775112444,0.08845577211394302,-0.46326836581709147,1419.047619047619,97.07940872923737,29.94340149499476,
1770981350644.3274,4.858695652173913,-6.978260869565217,2.152173913043478,2.9323758228605623,-10.47995212447636,-0.1891083183722322,4106.959706959707,1868.131868131868,2.0,3.0556776556776555,327.2596499640374,-21.51145038167939,-55.358778625954194,38.167938931297705,-0.9040479760119939,0.10494752623688156,-0.46326836581709147,1388.278388278388,97.07940872923737,29.94340149499476,
1770981350663.8584,4.9021739130434785,-6.83695652173913,2.119565217391304,2.9682824655894673,-10.326750448833034,-0.22262118491921004,4130.40293040293,1718.6813186813185,2.0,3.057142857142857,327.1028037383178,-16.30534351145038,-44.412213740458014,38.36641221374045,-0.889055472263868,0.09745127436281859,-0.4662668665667166,1379.4871794871794,97.08509154343534,29.94340149499476,
1770981350683.3894,4.956521739130435,-6.6521739130434785,2.0760869565217392,3.023339317773788,-10.125673249551166,-0.2872531418312388,4130.40293040293,1677.6556776556774,2.0,3.057142857142857,327.1028037383178,-13.587786259541984,-32.76335877862595,34.9618320610687,-0.8860569715142429,0.12443778110944527,-0.45577211394302847,1397.8021978021977,97.08225013494354,29.94340149499476,
1770981350702.921,5.021739130434782,-6.532608695652174,2.119565217391304,3.1095152603231595,-10.063435068821065,-0.2513464991023339,4128.937728937729,1659.3406593406592,2.0,3.057142857142857,327.1028037383178,-12.13740458015267,-20.27480916030534,30.50381679389313,-0.8860569715142429,0.08995502248875561,-0.45577211394302847,1435.164835164835,97.07088452883275,29.94340149499476,
1770981350722.4517,4.967391304347826,-6.423913043478261,2.1739130434782608,3.0903650508677436,-9.929383602633154,-0.2130460801915021,4130.40293040293,1660.07326007326,2.0,3.057142857142857,327.1028037383178,-10.106870229007633,-9.053435114503817,28.16793893129771,-0.8875562218890555,0.1199400299850075,-0.46476761619190404,1467.3992673992673,97.07940872923737,29.94340149499476,
1770981350741.983,4.858695652173913,-6.33695652173913,2.2065217391304346,3.0161579892280073,-9.780969479353681,-0.14841412327947337,4128.937728937729,1654.212454212454,2.0,3.0586080586080584,326.94610778443115,-9.251908396946565,-0.7022900763358778,23.832061068702288,-0.881559220389805,0.11394302848575712,-0.46476761619190404,1484.2490842490843,97.07656732631685,29.94340149499476,
1770981350761.514,4.728260869565217,-6.239130434782608,2.1739130434782608,2.8821065230400955,-9.699581089168163,-0.1436265709156194,4128.937728937729,1652.0146520146518,2.0,3.0586080586080584,326.94610778443115,-8.854961832061068,4.442748091603053,19.2824427480916,-0.8785607196401799,0.10344827586206896,-0.4677661169415292,1499.6336996336995,97.07656732631685,29.94340149499476,
1770981350781.045,4.565217391304348,-6.173913043478261,2.1739130434782608,2.6786355475763015,-9.60622381807301,-0.17235188509874327,4128.937728937729,1652.0146520146518,2.0,3.0586080586080584,326.94610778443115,-7.511450381679389,5.450381679389313,14.946564885496183,-0.8710644677661169,0.1199400299850075,-0.46326836581709147,1500.3663003663003,97.07372592618196,29.94340149499476,
1770981350800.5762,4.489130434782608,-6.119565217391304,2.1630434782608696,2.542190305206463,-9.522441651705565,-0.17713943746259725,4104.029304029304,1860.8058608058607,2.0,3.0586080586080584,326.94610778443115,-6.809160305343511,3.8167938931297707,10.412213740458014,-0.8770614692653673,0.12443778110944527,-0.4542728635682159,1495.2380952380952,97.07656732631685,29.94340149499476,
1770981350820.1072,4.467391304347826,-6.108695652173913,2.2391304347826084,2.503889886295631,-9.500897666068223,-0.12687013764213045,4102.5641025641025,1912.8205128205127,2.0,3.0600732600732603,326.7895618865214,-6.061068702290076,0.8396946564885496,5.923664122137405,-0.8830584707646176,0.12143928035982009,-0.46326836581709147,1476.1904761904761,97.07940872923737,29.94340149499476,
1770981350839.6382,4.456521739130435,-6.076086956521739,2.1739130434782608,2.4943147815679234,-9.486535008976661,-0.12447636146020347,4128.937728937729,1725.2747252747251,2.0,3.0615384615384613,326.63316582914575,-5.297709923664122,-2.4885496183206106,1.984732824427481,-0.881559220389805,0.09745127436281859,-0.4467766116941529,1444.6886446886447,97.07656732631685,29.94340149499476,
1770981350859.1694,4.445652173913043,-6.043478260869565,2.141304347826087,2.4799521244763616,-9.419509275882705,-0.20107719928186715,4126.007326007326,1665.201465201465,2.0,3.0615384615384613,326.63316582914575,-3.7251908396946565,-5.709923664122138,-2.351145038167939,-0.8740629685157421,0.1199400299850075,-0.4497751124437781,1408.058608058608,97.07940872923737,29.94340149499476,
1770981350878.7004,4.445652173913043,-6.010869565217392,2.0978260869565215,2.4943147815679234,-9.397965290245361,-0.24177139437462597,4101.098901098901,1863.003663003663,2.0,3.0615384615384613,326.63316582914575,-2.33587786259542,-8.778625954198473,-5.251908396946565,-0.8800599700149925,0.10944527736131934,-0.45577211394302847,1388.278388278388,97.07656732631685,29.94340149499476,
1770981350898.2317,4.456521739130435,-6.032608695652174,2.0652173913043477,2.491921005385996,-9.393177737881508,-0.2513464991023339,4128.937728937729,1711.3553113553112,2.0,3.0630036630036632,326.4769193972734,-0.7480916030534351,-10.51908396946565,-7.541984732824427,-0.8800599700149925,0.10644677661169415,-0.4422788605697151,1374.3589743589744,97.07656732631685,29.94340149499476,
1770981350917.7627,4.489130434782608,-6.043478260869565,2.0760869565217392,2.523040095751047,-9.419509275882705,-0.2800718132854578,4101.098901098901,1876.1904761904761,2.0,3.0644688644688642,326.320822376285,0.5038167938931297,-10.458015267175572,-10.061068702290076,-0.8695652173913043,0.10344827586206896,-0.4497751124437781,1374.3589743589744,97.07372592618196,29.94340149499476,
1770981350937.2937,4.467391304347826,-6.076086956521739,2.010869565217391,2.5086774386594852,-9.450628366247756,-0.3399162178336326,4127.472527472527,1713.5531135531135,2.0,3.0644688644688642,326.320822376285,1.5725190839694656,-9.83206106870229,-12.13740458015267,-0.8740629685157421,0.0914542728635682,-0.4512743628185907,1366.3003663003662,97.07656732631685,29.94340149499476,
1770981350956.825,4.434782608695652,-6.0978260869565215,2.0,2.5062836624775584,-9.47935368043088,-0.3758228605625374,4104.029304029304,1878.3882783882782,2.0,3.0659340659340657,326.16487455197137,2.1068702290076335,-8.259541984732824,-14.473282442748092,-0.8740629685157421,0.09745127436281859,-0.4512743628185907,1349.4505494505493,97.07656732631685,29.94340149499476,
1770981350976.356,4.456521739130435,-6.130434782608695,1.9891304347826086,2.4727707959305802,-9.496110113704368,-0.3973668461998803,4128.937728937729,1715.018315018315,2.0,3.0673992673992676,326.0090757105326,2.5801526717557253,-6.412213740458015,-16.916030534351144,-0.8695652173913043,0.0914542728635682,-0.4497751124437781,1334.7985347985348,97.07940872923737,29.94340149499476,
1770981350995.8872,4.413043478260869,-6.130434782608695,1.9782608695652173,2.4727707959305802,-9.517654099341712,-0.3710353081986834,4127.472527472527,1668.8644688644688,2.0,3.0673992673992676,326.0090757105326,2.8854961832061066,-4.0,-19.2824427480916,-0.8785607196401799,0.09745127436281859,-0.45727136431784104,1326.007326007326,97.08225013494354,29.94340149499476,
1770981351015.4182,4.33695652173913,-6.206521739130435,1.9456521739130435,2.3770197486535007,-9.608617594254937,-0.4452423698384201,4127.472527472527,1654.9450549450548,2.0,3.068864468864468,325.8534256385773,2.213740458015267,-2.4885496183206106,-21.099236641221374,-0.881559220389805,0.09895052473763118,-0.45727136431784104,1323.8095238095236,97.08225013494354,29.94340149499476,
1770981351034.9492,4.293478260869565,-6.25,1.891304347826087,2.2980251346499103,-9.642130460801916,-0.5002992220227409,4128.937728937729,1652.7472527472526,2.0,3.07032967032967,325.697924123121,2.4580152671755724,-1.083969465648855,-23.31297709923664,-0.8845577211394302,0.11094452773613193,-0.46326836581709147,1326.007326007326,97.07940872923737,29.94340149499476,
1770981351054.4805,4.228260869565217,-6.282608695652174,1.8478260869565217,2.2573309395571513,-9.685218432076601,-0.5122681029323758,4127.472527472527,1650.5494505494505,2.0,3.0717948717948715,325.542570951586,2.610687022900763,-0.10687022900763359,-25.221374045801525,-0.8770614692653673,0.10044977511244378,-0.4512743628185907,1352.3809523809523,97.08225013494354,29.94340149499476,
1770981351074.0117,4.206521739130435,-6.293478260869565,1.8369565217391304,2.2046678635547576,-9.704368641532017,-0.5362058647516457,4099.6336996336995,1853.4798534798533,2.0,3.073260073260073,325.3873659117998,2.6717557251908395,0.916030534351145,-27.114503816793892,-0.8875562218890555,0.1184407796101949,-0.46926536731634183,1419.047619047619,97.07940872923737,29.94340149499476,
1770981351093.5427,4.173913043478261,-6.260869565217391,1.826086956521739,2.1639736684619986,-9.673249551166966,-0.5338120885697187,4127.472527472527,1706.9597069597069,2.0,3.0747252747252745,325.2323087919943,2.5343511450381677,1.6030534351145038,-28.183206106870227,-0.889055472263868,0.095952023988006,-0.45277361319340326,1539.9267399267399,97.08225013494354,29.94340149499476,
1770981351113.0735,4.1521739130434785,-6.228260869565217,1.858695652173913,2.142429682824656,-9.668461998803112,-0.5553560742070617,4104.029304029304,1876.923076923077,2.0,3.076190476190476,325.077399380805,2.564885496183206,2.5343511450381677,-28.335877862595417,-0.8860569715142429,0.095952023988006,-0.46926536731634183,1695.2380952380952,97.07940872923737,29.94340149499476,
1770981351132.6047,4.119565217391305,-6.184782608695652,1.8478260869565217,2.111310592459605,-9.603830041891083,-0.5433871932974267,4101.098901098901,1923.0769230769229,2.0,3.079120879120879,324.768022840828,2.717557251908397,3.465648854961832,-29.00763358778626,-0.8905547226386806,0.10794602698650674,-0.45577211394302847,1858.6080586080584,97.08225013494354,29.94340149499476,
1770981351152.136,4.08695652173913,-6.076086956521739,1.8804347826086956,2.094554159186116,-9.486535008976661,-0.5314183123877917,4128.937728937729,1728.937728937729,2.0,3.0805860805860803,324.61355529131987,2.1068702290076335,4.198473282442748,-29.236641221374043,-0.8905547226386806,0.12593703148425786,-0.46476761619190404,1981.6849816849815,97.07940872923737,29.94340149499476,
1770981351171.667,4.0978260869565215,-6.021739130434782,1.8804347826086956,2.073010173548773,-9.385996409335727,-0.5194494314781568,4126.007326007326,1665.9340659340658,2.0,3.083516483516483,324.3050605844619,1.0076335877862594,5.1603053435114505,-28.519083969465647,-0.889055472263868,0.12143928035982009,-0.46926536731634183,2037.3626373626373,97.08509154343534,29.94340149499476,
1770981351191.1982,4.043478260869565,-6.010869565217392,1.8695652173913042,2.056253740275284,-9.371633752244165,-0.5266307600239377,4128.937728937729,1655.6776556776556,2.0,3.0849816849816847,324.15103300878656,-0.12213740458015267,6.595419847328244,-27.587786259541982,-0.8995502248875562,0.11544227886056971,-0.472263868065967,2023.4432234432234,97.07940872923737,29.94340149499476,
1770981351210.7292,4.043478260869565,-5.978260869565217,1.8478260869565217,2.025134649910233,-9.374027528426092,-0.5098743267504489,4109.89010989011,1869.5970695970695,2.0,3.087912087912087,323.8434163701068,-1.3435114503816794,8.717557251908397,-26.183206106870227,-0.9040479760119939,0.10494752623688156,-0.46476761619190404,1936.9963369963368,97.08225013494354,29.94340149499476,
1770981351230.2605,3.967391304347826,-5.978260869565217,1.8804347826086956,1.9724715739078396,-9.342908438061041,-0.5098743267504489,4126.007326007326,1704.7619047619046,2.0,3.0908424908424905,323.53638302915385,-1.984732824427481,10.778625954198473,-24.259541984732824,-0.9010494752623688,0.10044977511244378,-0.46026986506746626,1802.9304029304028,97.08145403663809,29.93837656719261,
1770981351249.7915,3.9565217391304346,-5.978260869565217,1.8695652173913042,1.9413524835427887,-9.345302214242968,-0.5266307600239377,4128.937728937729,1666.6666666666665,2.0,3.0937728937728934,323.22993132843953,-2.8091603053435112,11.465648854961831,-21.557251908396946,-0.9040479760119939,0.10794602698650674,-0.45727136431784104,1634.4322344322343,97.08429542200312,29.93837656719261,
1770981351269.3225,3.967391304347826,-6.010869565217392,1.9021739130434783,1.9269898264512269,-9.369239976062238,-0.47875523638539796,4105.494505494506,1865.201465201465,2.0,3.0967032967032964,322.9240596167495,-4.3206106870229,11.893129770992365,-18.27480916030534,-0.9070464767616192,0.09295352323838081,-0.46026986506746626,1476.923076923077,97.07577127426482,29.93837656719261,
1770981351288.8535,4.054347826086956,-5.967391304347826,1.967391304347826,1.9676840215439857,-9.338120885697187,-0.3997606223818073,4104.029304029304,1920.8791208791208,2.0,3.0996336996336993,322.6187662491137,-4.854961832061068,12.290076335877862,-15.129770992366412,-0.9100449775112444,0.08545727136431784,-0.46476761619190404,1371.4285714285713,97.07292989725659,29.93837656719261,
1770981351308.3848,4.032608695652174,-5.978260869565217,1.9891304347826086,2.0347097546379413,-9.340514661879114,-0.3710353081986834,4128.937728937729,1727.4725274725274,2.0,3.102564102564102,322.3140495867769,-5.694656488549618,13.190839694656487,-11.923664122137405,-0.9070464767616192,0.08695652173913043,-0.46926536731634183,1301.098901098901,97.07292989725659,29.93837656719261,
1770981351327.9158,4.010869565217392,-5.989130434782608,2.0,1.9772591262716936,-9.354877318970676,-0.36385397965290245,4126.007326007326,1672.5274725274724,2.0,3.104029304029303,322.1619070096767,-6.122137404580153,13.053435114503817,-9.206106870229007,-0.9100449775112444,0.10194902548725637,-0.4737631184407796,1268.8644688644688,97.07861265405866,29.93837656719261,
1770981351347.447,3.9891304347826084,-5.989130434782608,1.967391304347826,1.9748653500897666,-9.345302214242968,-0.3949730700179533,4128.937728937729,1657.8754578754579,2.0,3.108424908424908,321.706339853877,-6.366412213740458,12.15267175572519,-6.534351145038167,-0.9175412293853074,0.0914542728635682,-0.46176911544227883,1263.7362637362637,97.07577127426482,29.93837656719261,
1770981351366.978,4.010869565217392,-6.043478260869565,1.934782608695652,1.9461400359066428,-9.390783961699581,-0.43566726511071213,4128.937728937729,1653.4798534798533,2.0,3.111355311355311,321.4033435366141,-6.290076335877862,10.854961832061068,-4.488549618320611,-0.9145427286356821,0.10044977511244378,-0.4662668665667166,1287.9120879120878,97.07861265405866,29.93837656719261,
1770981351386.509,4.043478260869565,-6.130434782608695,1.9021739130434783,2.0035906642728905,-9.515260323159785,-0.466786355475763,4102.5641025641025,1854.9450549450548,2.0,3.1157509157509153,320.94991770514935,-5.877862595419847,9.603053435114504,-2.748091603053435,-0.9190404797601199,0.095952023988006,-0.4662668665667166,1337.7289377289376,97.07861265405866,29.93837656719261,
1770981351406.0403,4.076086956521739,-6.119565217391304,1.9021739130434783,2.0275284260921604,-9.50329144225015,-0.4404548174745661,4128.937728937729,1708.4249084249084,2.0,3.1186813186813183,320.6483439041579,-5.541984732824427,9.053435114503817,-0.8244274809160305,-0.9055472263868065,0.1184407796101949,-0.4737631184407796,1393.4065934065934,97.08145403663809,29.93837656719261,
1770981351425.5713,4.108695652173913,-6.163043478260869,1.9239130434782608,2.061041292639138,-9.534410532615201,-0.43566726511071213,4105.494505494506,1877.6556776556774,2.0,3.1230769230769226,320.19704433497543,-5.374045801526718,8.48854961832061,0.4427480916030534,-0.9130434782608695,0.10794602698650674,-0.4677661169415292,1433.6996336996335,97.07861265405866,29.93837656719261,
1770981351445.1023,4.130434782608695,-6.1521739130434785,1.9456521739130435,2.118491921005386,-9.539198084979054,-0.4428485936564931,4128.937728937729,1715.018315018315,2.0,3.1260073260073256,319.8968830560113,-5.816793893129771,8.15267175572519,1.8015267175572518,-0.9220389805097451,0.10044977511244378,-0.46926536731634183,1457.142857142857,97.08145403663809,29.93837656719261,
1770981351464.6335,4.119565217391305,-6.054347826086956,1.9565217391304348,2.128067025733094,-9.419509275882705,-0.41412327947336924,4128.937728937729,1670.3296703296703,2.0,3.130402930402931,319.44769482798966,-6.0,8.244274809160306,2.351145038167939,-0.9130434782608695,0.09895052473763118,-0.4752623688155922,1467.3992673992673,97.08145403663809,29.93837656719261,
1770981351484.1646,4.141304347826087,-6.0,1.9565217391304348,2.142429682824656,-9.388390185517654,-0.4069419509275883,4126.007326007326,1649.084249084249,2.0,3.134798534798535,318.9997663005375,-6.702290076335878,7.8473282442748085,3.297709923664122,-0.9145427286356821,0.11244377811094453,-0.46026986506746626,1460.8058608058607,97.07861265405866,29.93837656719261,
1770981351503.6958,4.163043478260869,-5.989130434782608,1.9565217391304348,2.1376421304608018,-9.369239976062238,-0.41172950329144226,4102.5641025641025,1853.4798534798533,2.0,3.1391941391941396,318.5530921820303,-7.694656488549618,7.969465648854961,4.488549618320611,-0.9220389805097451,0.0944527736131934,-0.4707646176911544,1443.956043956044,97.07292989725659,29.93837656719261,
1770981351523.2268,4.173913043478261,-5.967391304347826,1.934782608695652,2.159186116098145,-9.347695990424896,-0.4021543985637343,4128.937728937729,1707.6923076923076,2.0,3.143589743589744,318.1076672104404,-8.183206106870228,7.32824427480916,5.083969465648854,-0.9145427286356821,0.08695652173913043,-0.47826086956521735,1426.3736263736262,97.07861265405866,29.93837656719261,
1770981351542.758,4.184782608695652,-5.891304347826087,1.9565217391304348,2.1759425493716336,-9.28067025733094,-0.40933572710951527,4127.472527472527,1666.6666666666665,2.0,3.1479853479853483,317.66348615313007,-8.198473282442748,6.793893129770992,6.641221374045801,-0.9115442278860569,0.10494752623688156,-0.472263868065967,1405.8608058608058,97.07861265405866,29.93837656719261,
1770981351562.289,4.25,-5.934782608695652,1.9782608695652173,2.2094554159186117,-9.266307600239378,-0.4260921603830042,4128.937728937729,1655.6776556776556,2.0,3.1523809523809527,317.2205438066465,-8.396946564885496,6.2748091603053435,7.49618320610687,-0.9085457271364318,0.10494752623688156,-0.46476761619190404,1386.8131868131868,97.08145403663809,29.93837656719261,
1770981351581.82,4.25,-5.923913043478261,1.9782608695652173,2.276481149012567,-9.314183123877918,-0.38300418910831835,4105.494505494506,1862.2710622710622,2.0,3.156776556776557,316.77883499651887,-8.839694656488549,6.824427480916031,9.022900763358779,-0.9175412293853074,0.11094452773613193,-0.472263868065967,1364.8351648351647,97.07577127426482,29.93837656719261,
1770981351601.3513,4.282608695652174,-5.9021739130434785,1.9891304347826086,2.295631358467983,-9.249551166965889,-0.36146020347097546,4102.5641025641025,1913.5531135531135,2.0,3.1611721611721615,316.33835457705675,-8.396946564885496,7.145038167938931,10.305343511450381,-0.9160419790104948,0.10494752623688156,-0.4752623688155922,1345.7875457875457,97.07861265405866,29.93837656719261,
1770981351620.8823,4.282608695652174,-5.934782608695652,1.934782608695652,2.283662477558348,-9.28785158587672,-0.4045481747456613,4128.937728937729,1726.007326007326,2.0,3.165567765567766,315.89909743115015,-8.67175572519084,6.900763358778626,11.282442748091603,-0.9160419790104948,0.11394302848575712,-0.47826086956521735,1328.937728937729,97.07292989725659,29.93837656719261,
1770981351640.4136,4.293478260869565,-5.934782608695652,1.967391304347826,2.288450029922202,-9.275882704967085,-0.40933572710951527,4124.542124542124,1912.087912087912,2.0,3.16996336996337,315.46105847007163,-8.732824427480915,6.702290076335878,12.595419847328245,-0.9130434782608695,0.11094452773613193,-0.4752623688155922,1300.3663003663003,97.08145403663809,29.93837656719261,
1770981351659.9446,4.3478260869565215,-5.945652173913043,1.967391304347826,2.338719329742669,-9.31897067624177,-0.3973668461998803,4128.937728937729,1724.5421245421244,2.0,3.174358974358975,315.02423263327944,-8.67175572519084,6.5038167938931295,13.099236641221374,-0.9100449775112444,0.09295352323838081,-0.46926536731634183,1282.051282051282,97.07577127426482,29.93837656719261,
1770981351679.4756,4.391304347826087,-5.923913043478261,2.010869565217391,2.405745062836625,-9.304608019150209,-0.33512866546977854,4128.937728937729,1673.260073260073,2.0,3.178754578754579,314.58861488822305,-8.885496183206106,6.3969465648854955,13.419847328244273,-0.9115442278860569,0.10044977511244378,-0.45577211394302847,1271.062271062271,97.07577127426482,29.93837656719261,
1770981351699.0068,4.391304347826087,-5.989130434782608,2.010869565217391,2.4248952722920407,-9.323758228605625,-0.3279473369239976,4102.5641025641025,1860.8058608058607,2.0,3.1831501831501834,314.15420023014957,-9.801526717557252,6.549618320610687,13.603053435114504,-0.9130434782608695,0.11094452773613193,-0.47826086956521735,1262.2710622710622,97.07861265405866,29.93837656719261,
1770981351718.5378,4.413043478260869,-6.043478260869565,2.010869565217391,2.4560143626570916,-9.419509275882705,-0.33512866546977854,4127.472527472527,1708.4249084249084,2.0,3.1875457875457878,313.7209836819122,-10.045801526717558,6.900763358778626,13.419847328244273,-0.9070464767616192,0.09295352323838081,-0.46926536731634183,1266.6666666666665,97.07292989725659,29.93837656719261,
1770981351738.0688,4.434782608695652,-6.043478260869565,2.010869565217391,2.4631956912028725,-9.421903052064632,-0.3255535607420706,4105.494505494506,1877.6556776556774,2.0,3.1919413919413917,313.2889602937801,-10.076335877862595,7.190839694656488,12.366412213740457,-0.9040479760119939,0.09295352323838081,-0.4662668665667166,1287.179487179487,97.07861265405866,29.93837656719261,
1770981351757.6,4.413043478260869,-6.08695652173913,2.0217391304347827,2.4560143626570916,-9.450628366247756,-0.3399162178336326,4101.098901098901,1923.8095238095236,2.0,3.1963369963369965,312.85812514325005,-9.297709923664122,7.358778625954198,11.770992366412214,-0.8980509745127436,0.11394302848575712,-0.4752623688155922,1354.5787545787546,97.07861265405866,29.93837656719261,
1770981351777.131,4.456521739130435,-6.184782608695652,2.043478260869565,2.4727707959305802,-9.553560742070616,-0.3207660083782166,4128.937728937729,1728.937728937729,2.0,3.200732600732601,312.42847333485923,-9.267175572519083,7.511450381679389,10.229007633587786,-0.8980509745127436,0.09745127436281859,-0.46026986506746626,1481.3186813186812,97.07577127426482,29.93837656719261,
1770981351796.6624,4.5,-6.239130434782608,1.9891304347826086,2.5086774386594852,-9.644524236983841,-0.34709754637941354,4123.076923076923,1907.6923076923076,2.0,3.205128205128205,312.0,-8.793893129770993,7.587786259541985,8.625954198473282,-0.9100449775112444,0.10344827586206896,-0.46026986506746626,1640.2930402930401,97.08429542200312,29.93837656719261,
1770981351816.1934,4.510869565217392,-6.195652173913043,2.0217391304347827,2.546977857570317,-9.603830041891083,-0.3231597845601436,4101.098901098901,1932.6007326007325,2.0,3.2095238095238097,311.5727002967359,-7.2824427480916025,7.526717557251908,6.65648854961832,-0.9085457271364318,0.09895052473763118,-0.4737631184407796,1801.4652014652013,97.08145403663809,29.93837656719261,
1770981351835.7244,4.489130434782608,-6.195652173913043,2.0760869565217392,2.515858767205266,-9.601436265709156,-0.2728904847396768,4127.472527472527,1730.4029304029302,2.0,3.2139194139194145,311.1465694096193,-6.183206106870228,7.2824427480916025,4.778625954198473,-0.9055472263868065,0.12293853073463268,-0.4752623688155922,1925.2747252747251,97.07861265405866,29.93837656719261,
1770981351855.2556,4.445652173913043,-6.304347826086956,2.108695652173913,2.4751645721125075,-9.685218432076601,-0.2585278276481149,4126.007326007326,1666.6666666666665,2.0,3.2183150183150184,310.7216025495106,-6.305343511450381,6.748091603053435,3.145038167938931,-0.896551724137931,0.08995502248875561,-0.46176911544227883,1980.9523809523807,97.08429542200312,29.93837656719261,
1770981351874.7866,4.445652173913043,-6.478260869565217,2.043478260869565,2.4631956912028725,-9.879114302812686,-0.29682824655894674,4127.472527472527,1654.9450549450548,2.0,3.2212454212454213,310.43893563793495,-6.519083969465648,5.404580152671755,0.7175572519083969,-0.8995502248875562,0.0944527736131934,-0.46326836581709147,1954.5787545787543,97.07861265405866,29.93837656719261,
1770981351894.318,4.391304347826087,-6.456521739130435,2.0217391304347827,2.4608019150209457,-9.903052064631957,-0.31597845601436264,4104.029304029304,1861.5384615384614,2.0,3.2256410256410257,310.01589825119237,-6.045801526717557,4.519083969465648,-1.3435114503816794,-0.9055472263868065,0.10194902548725637,-0.4677661169415292,1870.3296703296703,97.07292989725659,29.93837656719261,
1770981351913.8489,4.445652173913043,-6.304347826086956,2.032608695652174,2.4631956912028725,-9.713943746259725,-0.3279473369239976,4128.937728937729,1710.6227106227104,2.0,3.2285714285714286,309.7345132743363,-4.763358778625954,3.5725190839694654,-4.33587786259542,-0.9040479760119939,0.11094452773613193,-0.4662668665667166,1753.113553113553,97.07008852303395,29.93837656719261,
1770981351933.38,4.413043478260869,-6.1521739130434785,2.0652173913043477,2.4488330341113107,-9.620586475164572,-0.31358467983243565,4128.937728937729,1668.131868131868,2.0,3.232967032967033,309.31339225016995,-4.0,3.6030534351145036,-7.099236641221374,-0.9040479760119939,0.10644677661169415,-0.4677661169415292,1617.5824175824175,97.08429542200312,29.93837656719261,
1770981351952.9111,4.358695652173913,-6.0978260869565215,2.0543478260869565,2.4344703770197484,-9.498503889886296,-0.3016157989228007,4124.542124542124,1895.2380952380952,2.0,3.237362637362638,308.8934147997284,-3.8625954198473282,3.2519083969465647,-9.114503816793892,-0.9040479760119939,0.09745127436281859,-0.4752623688155922,1482.051282051282,97.07292989725659,29.93837656719261,
1770981351972.442,4.304347826086956,-6.021739130434782,2.0543478260869565,2.3530819868342308,-9.438659485338121,-0.3087971274685817,4128.937728937729,1719.4139194139193,2.0,3.241758241758242,308.47457627118644,-3.465648854961832,3.5114503816793894,-11.48091603053435,-0.9010494752623688,0.1199400299850075,-0.4767616191904048,1367.032967032967,97.07292989725659,29.93837656719261,
1770981351991.9734,4.239130434782608,-6.010869565217392,2.0652173913043477,2.2860562537402753,-9.385996409335727,-0.2824655894673848,4128.937728937729,1671.7948717948716,2.0,3.2432234432234432,308.3352157217077,-2.549618320610687,3.877862595419847,-13.007633587786259,-0.9085457271364318,0.10194902548725637,-0.4737631184407796,1286.4468864468863,97.07577127426482,29.93837656719261,
1770981352011.5044,4.195652173913043,-6.054347826086956,2.0217391304347827,2.2046678635547576,-9.421903052064632,-0.2992220227408737,4106.959706959707,1873.260073260073,2.0,3.249084249084249,307.77903043968433,-1.7251908396946565,3.3587786259541983,-14.183206106870228,-0.9010494752623688,0.10344827586206896,-0.47976011994003,1240.2930402930401,97.08429542200312,29.93837656719261,
1770981352031.0354,4.1521739130434785,-6.032608695652174,2.010869565217391,2.1879114302812686,-9.402752842609216,-0.3064033512866547,4126.007326007326,1705.4945054945053,2.0,3.2520146520146525,307.5016895697229,-1.1603053435114503,2.3206106870229006,-15.343511450381678,-0.9055472263868065,0.11094452773613193,-0.45277361319340326,1229.3040293040292,97.07861265405866,29.93837656719261,
1770981352050.567,4.130434782608695,-6.010869565217392,2.0,2.128067025733094,-9.385996409335727,-0.33034111310592457,4105.494505494506,1876.923076923077,2.0,3.256410256410257,307.0866141732283,-0.3053435114503817,0.9923664122137404,-15.221374045801527,-0.9115442278860569,0.12443778110944527,-0.4737631184407796,1247.6190476190475,97.08145403663809,29.93837656719261,
1770981352070.0977,4.141304347826087,-6.021739130434782,1.9782608695652173,2.104129263913824,-9.390783961699581,-0.3877917414721723,4130.40293040293,1720.8791208791208,2.0,3.2593406593406593,306.81051921780175,0.5801526717557252,-0.13740458015267176,-15.083969465648854,-0.9160419790104948,0.09895052473763118,-0.46926536731634183,1276.1904761904761,97.07292989725659,29.93837656719261,
1770981352089.629,4.173913043478261,-6.130434782608695,1.967391304347826,2.1328545780969477,-9.45541591861161,-0.3949730700179533,4128.937728937729,1671.7948717948716,2.0,3.2637362637362632,306.3973063973064,0.42748091603053434,-1.1755725190839694,-14.778625954198473,-0.9070464767616192,0.08845577211394302,-0.472263868065967,1299.6336996336995,97.08145403663809,29.93837656719261,
1770981352109.16,4.130434782608695,-6.1521739130434785,1.9782608695652173,2.152004787552364,-9.536804308797127,-0.3997606223818073,4124.542124542124,1896.7032967032965,2.0,3.2666666666666666,306.12244897959187,0.8396946564885496,-1.5725190839694656,-14.412213740458014,-0.9085457271364318,0.10344827586206896,-0.46326836581709147,1323.8095238095236,97.07292989725659,29.93837656719261,
1770981352128.691,4.130434782608695,-6.119565217391304,1.967391304347826,2.120885697187313,-9.50329144225015,-0.4260921603830042,4102.5641025641025,1923.8095238095236,2.0,3.271062271062271,305.7110862262038,0.9618320610687022,-2.0610687022900764,-13.84732824427481,-0.9070464767616192,0.0944527736131934,-0.46926536731634183,1350.18315018315,97.08145403663809,29.93837656719261,
1770981352148.2222,4.141304347826087,-6.108695652173913,1.9239130434782608,2.111310592459605,-9.464991023339318,-0.45002992220227406,4128.937728937729,1728.937728937729,2.0,3.2739926739926735,305.43745804430523,0.6717557251908397,-2.1221374045801524,-14.030534351145038,-0.9130434782608695,0.0914542728635682,-0.47826086956521735,1358.2417582417581,97.08145403663809,29.93837656719261,
1770981352167.7532,4.0978260869565215,-6.173913043478261,1.9021739130434783,2.096947935368043,-9.505685218432076,-0.42848593656493117,4123.076923076923,1907.6923076923076,2.0,3.276923076923077,305.1643192488263,0.5190839694656488,-2.1374045801526718,-13.099236641221374,-0.9160419790104948,0.08845577211394302,-0.4677661169415292,1364.8351648351647,97.07577127426482,29.93837656719261,
1770981352187.2844,4.108695652173913,-6.173913043478261,1.8478260869565217,2.0897666068222622,-9.599042489527228,-0.5170556552962298,4126.007326007326,1715.7509157509157,2.0,3.2798534798534797,304.8916685280322,0.7175572519083969,-1.3129770992366412,-12.167938931297709,-0.9115442278860569,0.10794602698650674,-0.4677661169415292,1361.904761904762,97.07292989725659,29.93837656719261,
1770981352206.8154,4.184782608695652,-6.108695652173913,1.8804347826086956,2.1735487731897067,-9.493716337522441,-0.4883303411131059,4104.029304029304,1879.8534798534797,2.0,3.2842490842490837,304.48360472897616,1.9236641221374045,-0.6717557251908397,-11.450381679389313,-0.9220389805097451,0.10794602698650674,-0.4677661169415292,1347.2527472527472,97.07861265405866,29.93837656719261,
1770981352226.3464,4.141304347826087,-6.032608695652174,1.967391304347826,2.120885697187313,-9.405146618791143,-0.42848593656493117,4130.40293040293,1722.3443223443223,2.0,3.287179487179487,304.2121684867395,2.2900763358778624,0.9770992366412213,-10.366412213740457,-0.9220389805097451,0.095952023988006,-0.4767616191904048,1333.3333333333333,97.08020480702179,29.948426423087948,
1770981352245.8777,3.9891304347826084,-5.956521739130435,2.032608695652174,1.9940155595451825,-9.350089766606821,-0.3399162178336326,4128.937728937729,1671.7948717948716,2.0,3.29010989010989,303.94121576486305,2.16793893129771,2.183206106870229,-8.50381679389313,-0.9190404797601199,0.11394302848575712,-0.48125937031484256,1318.6813186813185,97.08020480702179,29.948426423087948,
1770981352265.4087,3.9891304347826084,-5.989130434782608,2.043478260869565,1.9533213644524237,-9.342908438061041,-0.3255535607420706,4123.076923076923,1890.1098901098899,2.0,3.293040293040293,303.67074527252504,0.2595419847328244,1.618320610687023,-6.977099236641221,-0.9160419790104948,0.09295352323838081,-0.4737631184407796,1293.7728937728937,97.07452195771296,29.948426423087948,
1770981352284.9397,4.021739130434782,-5.978260869565217,1.967391304347826,2.0035906642728905,-9.338120885697187,-0.3997606223818073,4101.098901098901,1927.4725274725274,2.0,3.2959706959706963,303.4007557234941,-0.9618320610687022,0.16793893129770993,-5.358778625954198,-0.9220389805097451,0.11394302848575712,-0.4872563718140929,1264.4688644688645,97.08304623585474,29.948426423087948,
1770981352304.471,4.043478260869565,-5.923913043478261,2.032608695652174,2.0394973070017954,-9.278276481149012,-0.3566726511071215,4128.937728937729,1729.6703296703295,2.0,3.298901098901099,303.13124583610926,-2.1374045801526718,0.183206106870229,-3.969465648854962,-0.9160419790104948,0.10194902548725637,-0.4662668665667166,1239.5604395604396,97.08588766747336,29.948426423087948,
1770981352324.002,4.184782608695652,-5.9021739130434785,2.0543478260869565,2.159186116098145,-9.26391382405745,-0.33273488928785155,4112.820512820513,1890.8424908424906,2.0,3.301831501831502,302.8622143332594,-2.2900763358778624,0.6259541984732824,-1.3129770992366412,-0.9160419790104948,0.095952023988006,-0.4767616191904048,1236.6300366300366,97.08020480702179,29.948426423087948,
1770981352343.5332,4.25,-5.989130434782608,2.043478260869565,2.2309994015559544,-9.28785158587672,-0.33034111310592457,4126.007326007326,1710.6227106227104,2.0,3.306227106227106,302.4595612674496,-3.9236641221374042,0.183206106870229,-0.16793893129770993,-0.9295352323838081,0.10644677661169415,-0.48275862068965514,1241.0256410256409,97.08304623585474,29.948426423087948,
1770981352363.0642,4.195652173913043,-5.989130434782608,2.0978260869565215,2.2142429682824654,-9.364452423698385,-0.3016157989228007,4104.029304029304,1877.6556776556774,2.0,3.307692307692307,302.3255813953489,-4.183206106870228,-0.030534351145038167,1.5572519083969465,-0.9220389805097451,0.12293853073463268,-0.48425787106446777,1238.8278388278388,97.08588766747336,29.948426423087948,
1770981352382.5952,4.206521739130435,-6.010869565217392,2.0978260869565215,2.1974865350089767,-9.371633752244165,-0.26331538001196886,4128.937728937729,1715.7509157509157,2.0,3.3120879120879123,301.92435301924354,-4.1679389312977095,-0.9923664122137404,2.778625954198473,-0.9220389805097451,0.08695652173913043,-0.4677661169415292,1235.164835164835,97.08304623585474,29.948426423087948,
1770981352402.1265,4.239130434782608,-6.065217391304348,2.0652173913043477,2.2262118491921004,-9.409934171154998,-0.3016157989228007,4128.937728937729,1670.3296703296703,2.0,3.3135531135531133,301.7908467831086,-4.091603053435114,-2.6564885496183206,4.9465648854961835,-0.9265367316341829,0.0944527736131934,-0.47976011994003,1226.3736263736264,97.08020480702179,29.948426423087948,
1770981352421.6577,4.25,-6.0978260869565215,2.0543478260869565,2.2597247157390785,-9.469778575703172,-0.3087971274685817,4121.611721611721,1889.3772893772893,2.0,3.316483516483516,301.5241882041087,-3.7557251908396947,-3.5267175572519083,5.679389312977099,-0.9085457271364318,0.10194902548725637,-0.4752623688155922,1233.6996336996335,97.08020480702179,29.948426423087948,
1770981352441.1887,4.260869565217392,-6.054347826086956,2.032608695652174,2.264512268102932,-9.453022142429683,-0.3016157989228007,4101.098901098901,1926.7399267399267,2.0,3.319413919413919,301.2580004414037,-3.4198473282442747,-4.366412213740458,5.908396946564885,-0.9190404797601199,0.10944527736131934,-0.4872563718140929,1269.5970695970695,97.08304623585474,29.948426423087948,
1770981352460.7195,4.304347826086956,-6.054347826086956,2.043478260869565,2.2932375822860562,-9.433871932974267,-0.31358467983243565,4128.937728937729,1729.6703296703295,2.0,3.3223443223443225,300.9922822491731,-3.709923664122137,-4.717557251908397,6.351145038167939,-0.9190404797601199,0.10194902548725637,-0.4767616191904048,1356.0439560439559,97.07736338097453,29.948426423087948,
1770981352480.2507,4.315217391304348,-6.130434782608695,2.032608695652174,2.317175344105326,-9.484141232794734,-0.3040095751047277,4127.472527472527,1673.260073260073,2.0,3.325274725274725,300.72703238598814,-3.465648854961832,-4.778625954198473,6.458015267175572,-0.9175412293853074,0.09295352323838081,-0.47826086956521735,1490.8424908424906,97.08304623585474,29.948426423087948,
1770981352499.782,4.358695652173913,-6.119565217391304,2.010869565217391,2.362657091561939,-9.51047277079593,-0.3255535607420706,4128.937728937729,1657.8754578754579,2.0,3.328205128205128,300.46224961479203,-2.33587786259542,-3.8931297709923665,6.198473282442748,-0.9190404797601199,0.10194902548725637,-0.4977511244377811,1640.2930402930401,97.08304623585474,29.948426423087948,
1770981352519.313,4.4021739130434785,-6.010869565217392,2.108695652173913,2.4081388390185516,-9.417115499700778,-0.26810293237582283,4105.494505494506,1863.003663003663,2.0,3.3296703296703294,300.33003300330034,-2.595419847328244,-3.0381679389312977,6.427480916030534,-0.9100449775112444,0.10494752623688156,-0.47826086956521735,1772.8937728937728,97.07736338097453,29.948426423087948,
1770981352538.8442,4.369565217391305,-5.978260869565217,2.119565217391304,2.4081388390185516,-9.369239976062238,-0.23937761819269898,4101.098901098901,1919.4139194139193,2.0,3.3340659340659338,299.9340804218853,-3.282442748091603,-2.2442748091603053,6.152671755725191,-0.9175412293853074,0.10494752623688156,-0.48275862068965514,1854.9450549450548,97.08304623585474,29.948426423087948,
1770981352558.3752,4.326086956521739,-6.054347826086956,2.130434782608696,2.34590065828845,-9.393177737881508,-0.22501496110113703,4127.472527472527,1726.007326007326,2.0,3.3369963369963367,299.67069154774975,-3.709923664122137,-2.4122137404580153,5.49618320610687,-0.9085457271364318,0.12293853073463268,-0.47826086956521735,1848.3516483516482,97.08020480702179,29.948426423087948,
1770981352577.9062,4.369565217391305,-6.054347826086956,2.119565217391304,2.386594853381209,-9.429084380610412,-0.23219628964691802,4120.14652014652,1899.6336996336995,2.0,3.3384615384615386,299.53917050691246,-3.6946564885496183,-2.549618320610687,5.435114503816794,-0.9115442278860569,0.1169415292353823,-0.48425787106446777,1772.161172161172,97.08020480702179,29.948426423087948,
1770981352597.4375,4.358695652173913,-6.076086956521739,2.1630434782608696,2.381807301017355,-9.436265709156194,-0.1891083183722322,4127.472527472527,1720.14652014652,2.0,3.3413919413919415,299.27647445735585,-4.2748091603053435,-2.900763358778626,4.916030534351145,-0.9070464767616192,0.08695652173913043,-0.46326836581709147,1655.6776556776556,97.08020480702179,29.948426423087948,
1770981352616.9685,4.4021739130434785,-6.1521739130434785,2.1739130434782608,2.4081388390185516,-9.52722920406942,-0.18192698982645122,4127.472527472527,1670.3296703296703,2.0,3.344322344322344,299.01423877327494,-4.076335877862595,-2.8244274809160306,4.122137404580153,-0.9115442278860569,0.10644677661169415,-0.47826086956521735,1517.9487179487178,97.07736338097453,29.948426423087948,
1770981352636.4998,4.380434782608695,-6.130434782608695,2.141304347826087,2.410532615200479,-9.543985637342908,-0.16517055655296228,4115.750915750916,1880.5860805860805,2.0,3.347252747252747,298.752462245568,-3.114503816793893,-3.465648854961832,3.282442748091603,-0.9085457271364318,0.11394302848575712,-0.48575712143928035,1386.080586080586,97.07736338097453,29.948426423087948,
1770981352656.0308,4.3478260869565215,-6.08695652173913,2.1956521739130435,2.3650508677438657,-9.457809694793536,-0.15080789946140036,4123.076923076923,1949.4505494505493,2.0,3.3516483516483513,298.360655737705,-2.8244274809160306,-3.4351145038167936,2.4885496183206106,-0.9070464767616192,0.1199400299850075,-0.47976011994003,1279.8534798534797,97.08020480702179,29.948426423087948,
1770981352675.5618,4.315217391304348,-6.043478260869565,2.1956521739130435,2.329144225014961,-9.426690604428485,-0.13165769000598443,4102.5641025641025,1939.9267399267399,2.0,3.3531135531135527,298.23028184400266,-3.3435114503816794,-4.183206106870228,1.4961832061068703,-0.9100449775112444,0.12143928035982009,-0.48125937031484256,1210.2564102564102,97.08304623585474,29.948426423087948,
1770981352695.093,4.380434782608695,-6.043478260869565,2.2391304347826084,2.379413524835428,-9.419509275882705,-0.12926391382405744,4101.098901098901,1942.124542124542,2.0,3.3560439560439557,297.969875573019,-3.49618320610687,-4.961832061068702,0.8396946564885496,-0.9040479760119939,0.1169415292353823,-0.48275862068965514,1168.4981684981685,97.08020480702179,29.948426423087948,
1770981352714.624,4.4021739130434785,-6.0,2.2065217391304346,2.4129263913824057,-9.362058647516458,-0.1364452423698384,4127.472527472527,1732.6007326007325,2.0,3.358974358974358,297.7099236641222,-3.9083969465648853,-4.5038167938931295,0.9007633587786259,-0.9130434782608695,0.10794602698650674,-0.47826086956521735,1160.4395604395604,97.08020480702179,29.948426423087948,
1770981352734.155,4.369565217391305,-5.956521739130435,2.1847826086956523,2.39377618192699,-9.342908438061041,-0.1364452423698384,4121.611721611721,1907.6923076923076,2.0,3.363369963369963,297.3208451317796,-4.2748091603053435,-4.045801526717557,1.1603053435114503,-0.9115442278860569,0.0944527736131934,-0.47976011994003,1189.0109890109889,97.08020480702179,29.948426423087948,
1770981352753.6863,4.4021739130434785,-5.967391304347826,2.1847826086956523,2.398563734290844,-9.33572710951526,-0.13405146618791142,4101.098901098901,1932.6007326007325,2.0,3.367765567765568,296.93278224929304,-5.572519083969466,-3.2671755725190836,1.297709923664122,-0.9115442278860569,0.11544227886056971,-0.47976011994003,1235.8974358974358,97.07452195771296,29.948426423087948,
1770981352773.2173,4.445652173913043,-5.989130434782608,2.2065217391304346,2.4248952722920407,-9.32854578096948,-0.12926391382405744,4128.937728937729,1731.8681318681317,2.0,3.3706959706959703,296.67463594870685,-6.351145038167939,-2.3053435114503817,1.4351145038167938,-0.9115442278860569,0.09895052473763118,-0.46326836581709147,1288.6446886446886,97.08020480702179,29.948426423087948,
1770981352792.7483,4.413043478260869,-5.967391304347826,2.1847826086956523,2.429682824655895,-9.342908438061041,-0.17235188509874327,4117.216117216117,1900.3663003663003,2.0,3.3750915750915746,296.2882570002171,-6.885496183206107,-1.648854961832061,1.6335877862595418,-0.9055472263868065,0.09295352323838081,-0.4737631184407796,1350.18315018315,97.08020480702179,29.948426423087948,
1770981352812.2795,4.413043478260869,-6.0,2.152173913043478,2.4009575104727707,-9.362058647516458,-0.1603830041891083,4128.937728937729,1721.6117216117216,2.0,3.3780219780219785,296.0312296681847,-6.7328244274809155,-1.3435114503816794,1.5267175572519083,-0.9025487256371814,0.10944527736131934,-0.48425787106446777,1391.9413919413919,97.07452195771296,29.948426423087948,
1770981352831.8103,4.423913043478261,-6.0,2.1630434782608696,2.4392579293836025,-9.354877318970676,-0.19150209455415917,4105.494505494506,1881.3186813186812,2.0,3.37948717948718,295.9028831562974,-7.099236641221374,-0.6106870229007634,1.4351145038167938,-0.9070464767616192,0.10194902548725637,-0.46326836581709147,1404.3956043956043,97.08588766747336,29.948426423087948,
1770981352851.3418,4.413043478260869,-5.978260869565217,2.108695652173913,2.4368641532016757,-9.354877318970676,-0.20107719928186715,4130.40293040293,1722.3443223443223,2.0,3.382417582417583,295.6465237166991,-7.068702290076335,0.1984732824427481,1.0229007633587786,-0.8995502248875562,0.10794602698650674,-0.46476761619190404,1405.128205128205,97.07452195771296,29.948426423087948,
1770981352870.8728,4.434782608695652,-6.032608695652174,2.130434782608696,2.4536205864751643,-9.37642130460802,-0.23219628964691802,4127.472527472527,1671.0622710622708,2.0,3.3853479853479858,295.3906080934862,-6.99236641221374,0.5343511450381679,0.8091603053435115,-0.9085457271364318,0.13493253373313344,-0.4752623688155922,1391.9413919413919,97.08304623585474,29.948426423087948,
1770981352890.404,4.445652173913043,-6.021739130434782,2.0978260869565215,2.4799521244763616,-9.400359066427288,-0.26331538001196886,4121.611721611721,1888.6446886446886,2.0,3.3882783882783887,295.1351351351351,-6.65648854961832,1.6335877862595418,0.5343511450381679,-0.9085457271364318,0.1199400299850075,-0.4677661169415292,1370.6959706959706,97.07452195771296,29.948426423087948,
1770981352909.935,4.413043478260869,-6.043478260869565,2.1630434782608696,2.4536205864751643,-9.40754039497307,-0.2130460801915021,4102.5641025641025,1921.6117216117216,2.0,3.38974358974359,295.0075642965204,-6.305343511450381,2.717557251908397,0.41221374045801523,-0.896551724137931,0.1184407796101949,-0.4737631184407796,1352.3809523809523,97.07736338097453,29.948426423087948,
1770981352929.466,4.478260869565217,-6.054347826086956,2.1630434782608696,2.4775583482944343,-9.417115499700778,-0.19150209455415917,4128.937728937729,1728.2051282051282,2.0,3.391208791208791,294.8801036941024,-6.412213740458015,3.297709923664122,-0.12213740458015267,-0.9025487256371814,0.11094452773613193,-0.4752623688155922,1337.7289377289376,97.08020480702179,29.948426423087948,
1770981352948.9973,4.434782608695652,-6.054347826086956,2.130434782608696,2.4560143626570916,-9.412327947336923,-0.21543985637342908,4128.937728937729,1673.9926739926739,2.0,3.3941391941391945,294.6255126268077,-6.5038167938931295,3.6946564885496183,-0.8396946564885496,-0.9070464767616192,0.10944527736131934,-0.47826086956521735,1325.2747252747251,97.08020480702179,29.948426423087948,
1770981352968.5283,4.413043478260869,-6.021739130434782,2.108695652173913,2.4344703770197484,-9.405146618791143,-0.2513464991023339,4124.542124542124,1896.7032967032965,2.0,3.3970695970695974,294.37136079361653,-6.091603053435114,3.9389312977099236,-1.2213740458015268,-0.9100449775112444,0.10944527736131934,-0.47826086956521735,1311.3553113553112,97.08304623585474,29.948426423087948,
1770981352988.0596,4.413043478260869,-6.043478260869565,2.141304347826087,2.410532615200479,-9.402752842609216,-0.24416517055655296,4105.494505494506,1931.135531135531,2.0,3.3985347985347985,294.24444923474886,-6.534351145038167,4.564885496183206,-1.5877862595419847,-0.9085457271364318,0.12143928035982009,-0.46926536731634183,1295.970695970696,97.07736338097453,29.948426423087948,
1770981353007.5906,4.445652173913043,-6.054347826086956,2.152173913043478,2.4392579293836025,-9.441053261520048,-0.19628964691801315,4102.5641025641025,1934.065934065934,2.0,3.401465201465202,293.99095412448844,-6.824427480916031,5.083969465648854,-1.984732824427481,-0.9130434782608695,0.11394302848575712,-0.4752623688155922,1283.5164835164835,97.07736338097453,29.948426423087948,
1770981353027.1216,4.423913043478261,-5.978260869565217,2.141304347826087,2.4584081388390184,-9.357271095152603,-0.1867145421903052,4128.937728937729,1731.8681318681317,2.0,3.4043956043956047,293.73789541639763,-6.717557251908397,6.183206106870228,-2.0610687022900764,-0.8995502248875562,0.10194902548725637,-0.4752623688155922,1278.3882783882782,97.07736338097453,29.948426423087948,
1770981353046.6528,4.413043478260869,-5.891304347826087,2.141304347826087,2.4464392579293834,-9.254338719329743,-0.20107719928186715,4120.14652014652,1901.8315018315018,2.0,3.4073260073260077,293.48527198451944,-6.977099236641221,7.2824427480916025,-1.984732824427481,-0.9025487256371814,0.0944527736131934,-0.4767616191904048,1290.10989010989,97.08304623585474,29.948426423087948,
1770981353066.1838,4.413043478260869,-5.913043478260869,2.119565217391304,2.4225014961101135,-9.26391382405745,-0.20825852782764812,4101.098901098901,1930.4029304029302,2.0,3.408791208791209,293.35912314635715,-7.541984732824427,7.801526717557252,-2.259541984732824,-0.9055472263868065,0.1169415292353823,-0.4872563718140929,1292.3076923076922,97.08588766747336,29.948426423087948,
1770981353085.715,4.4021739130434785,-5.945652173913043,2.0869565217391304,2.4201077199281866,-9.31897067624177,-0.24655894673847994,4128.937728937729,1731.135531135531,2.0,3.4117216117216116,293.10715052608975,-7.633587786259541,8.595419847328245,-2.549618320610687,-0.9055472263868065,0.12443778110944527,-0.4752623688155922,1299.6336996336995,97.08304623585474,29.948426423087948,
1770981353105.246,4.4021739130434785,-5.978260869565217,2.0869565217391304,2.4272890484739675,-9.33572710951526,-0.2752842609216038,4121.611721611721,1906.9597069597069,2.0,3.4117216117216116,293.10715052608975,-7.175572519083969,9.114503816793892,-2.381679389312977,-0.9055472263868065,0.08695652173913043,-0.46026986506746626,1323.8095238095236,97.08304623585474,29.948426423087948,
1770981353124.777,4.391304347826087,-5.989130434782608,2.0760869565217392,2.4033512866546975,-9.345302214242968,-0.2704967085577498,4123.076923076923,1957.5091575091574,2.0,3.414652014652015,292.85561038403773,-7.267175572519084,9.526717557251908,-2.854961832061069,-0.9145427286356821,0.0914542728635682,-0.46926536731634183,1397.069597069597,97.08020480702179,29.948426423087948,
1770981353144.3083,4.413043478260869,-6.032608695652174,2.0760869565217392,2.4368641532016757,-9.409934171154998,-0.24416517055655296,4104.029304029304,1948.7179487179485,2.0,3.416117216117216,292.73000214454214,-7.236641221374046,10.106870229007633,-2.8702290076335877,-0.9175412293853074,0.10644677661169415,-0.48875562218890556,1506.227106227106,97.08020480702179,29.948426423087948,
1770981353163.8394,4.4021739130434785,-6.076086956521739,2.0978260869565215,2.4368641532016757,-9.421903052064632,-0.236983842010772,4102.5641025641025,1939.9267399267399,2.0,3.417582417582418,292.604501607717,-7.49618320610687,10.625954198473282,-3.2213740458015265,-0.9055472263868065,0.10044977511244378,-0.472263868065967,1627.106227106227,97.08020480702179,29.948426423087948,
1770981353183.3704,4.4021739130434785,-6.08695652173913,2.0652173913043477,2.41771394374626,-9.486535008976661,-0.2585278276481149,4128.937728937729,1733.3333333333333,2.0,3.4190476190476193,292.4791086350975,-7.145038167938931,10.458015267175572,-3.877862595419847,-0.9010494752623688,0.12143928035982009,-0.4662668665667166,1731.135531135531,97.08304623585474,29.948426423087948,
1770981353202.9016,4.369565217391305,-6.130434782608695,2.0,2.386594853381209,-9.481747456612807,-0.3207660083782166,4121.611721611721,1907.6923076923076,2.0,3.420512820512821,292.3538230884557,-6.946564885496183,10.412213740458014,-4.67175572519084,-0.9100449775112444,0.09295352323838081,-0.46176911544227883,1789.7435897435896,97.07452195771296,29.948426423087948,
1770981353222.4326,4.358695652173913,-6.141304347826087,2.010869565217391,2.36983842010772,-9.522441651705565,-0.34709754637941354,4128.937728937729,1724.5421245421244,2.0,3.423443223443224,292.1035737213781,-6.671755725190839,10.229007633587786,-5.541984732824427,-0.9115442278860569,0.08995502248875561,-0.46476761619190404,1794.8717948717947,97.07372592618196,29.94340149499476,
1770981353241.964,4.358695652173913,-6.130434782608695,2.010869565217391,2.3530819868342308,-9.52722920406942,-0.34470377019748655,4128.937728937729,1672.5274725274724,2.0,3.424908424908425,291.9786096256684,-6.3206106870229,9.969465648854962,-6.671755725190839,-0.9130434782608695,0.09745127436281859,-0.4767616191904048,1745.054945054945,97.07940872923737,29.94340149499476,
1770981353261.4949,4.326086956521739,-6.119565217391304,2.0217391304347827,2.355475763016158,-9.498503889886296,-0.3279473369239976,4121.611721611721,1890.1098901098899,2.0,3.426373626373627,291.85375240538804,-6.061068702290076,10.167938931297709,-6.870229007633587,-0.9010494752623688,0.10194902548725637,-0.47826086956521735,1661.5384615384614,97.07656732631685,29.94340149499476,
1770981353281.026,4.293478260869565,-6.108695652173913,2.0,2.2980251346499103,-9.491322561340514,-0.3494913225613405,4121.611721611721,1951.6483516483515,2.0,3.427838827838828,291.7290019234879,-6.442748091603053,10.442748091603052,-7.2824427480916025,-0.9160419790104948,0.12143928035982009,-0.4737631184407796,1564.102564102564,97.07940872923737,29.94340149499476,
1770981353300.5571,4.282608695652174,-6.065217391304348,2.0,2.2669060442848594,-9.457809694793536,-0.3782166367444644,4104.029304029304,1946.5201465201465,2.0,3.430769230769231,291.47982062780267,-6.183206106870228,10.65648854961832,-7.114503816793893,-0.9025487256371814,0.11544227886056971,-0.4752623688155922,1460.8058608058607,97.07656732631685,29.94340149499476,
1770981353320.088,4.25,-6.032608695652174,1.9891304347826086,2.2716935966487135,-9.421903052064632,-0.3734290843806104,4102.5641025641025,1945.054945054945,2.0,3.4336996336996335,291.2310646468957,-6.213740458015267,11.526717557251908,-6.793893129770992,-0.9115442278860569,0.0944527736131934,-0.4767616191904048,1359.7069597069597,97.07940872923737,29.94340149499476,
1770981353339.6194,4.217391304347826,-6.010869565217392,1.934782608695652,2.2070616397366845,-9.385996409335727,-0.3782166367444644,4127.472527472527,1734.065934065934,2.0,3.432234432234432,291.3553895410886,-6.106870229007633,11.618320610687022,-6.5038167938931295,-0.9145427286356821,0.10794602698650674,-0.47976011994003,1280.5860805860805,97.07656732631685,29.94340149499476,
1770981353359.1504,4.173913043478261,-6.054347826086956,1.9782608695652173,2.154398563734291,-9.417115499700778,-0.4021543985637343,4120.14652014652,1901.8315018315018,2.0,3.4336996336996335,291.2310646468957,-6.65648854961832,11.465648854961831,-5.83206106870229,-0.9145427286356821,0.10344827586206896,-0.4737631184407796,1232.2344322344322,97.07372592618196,29.94340149499476,
1770981353378.6814,4.173913043478261,-6.076086956521739,1.934782608695652,2.1855176540993417,-9.46259724715739,-0.3973668461998803,4127.472527472527,1720.8791208791208,2.0,3.4351648351648354,291.106845809341,-6.717557251908397,11.236641221374045,-5.145038167938931,-0.9220389805097451,0.10194902548725637,-0.4737631184407796,1229.3040293040292,97.07940872923737,29.94340149499476,
1770981353398.2126,4.173913043478261,-6.032608695652174,1.967391304347826,2.1639736684619986,-9.393177737881508,-0.41172950329144226,4127.472527472527,1671.0622710622708,2.0,3.4366300366300373,290.98273289277336,-6.3206106870229,10.748091603053435,-4.65648854961832,-0.9160419790104948,0.0944527736131934,-0.47826086956521735,1246.153846153846,97.07656732631685,29.94340149499476,
1770981353417.7437,4.173913043478261,-5.967391304347826,1.9456521739130435,2.1448234590065827,-9.338120885697187,-0.4189108318372232,4126.007326007326,1649.084249084249,2.0,3.438095238095238,290.85872576177286,-6.198473282442748,10.48854961832061,-4.351145038167939,-0.9175412293853074,0.095952023988006,-0.48275862068965514,1283.5164835164835,97.07940872923737,29.94340149499476,
1770981353437.275,4.141304347826087,-5.978260869565217,1.9130434782608696,2.14721723518851,-9.326152004787552,-0.4189108318372232,4128.937728937729,1651.2820512820513,2.0,3.4395604395604398,290.73482428115017,-6.900763358778626,10.045801526717558,-3.877862595419847,-0.9190404797601199,0.09295352323838081,-0.47826086956521735,1325.2747252747251,97.07656732631685,29.94340149499476,
1770981353456.806,4.141304347826087,-5.967391304347826,1.8804347826086956,2.128067025733094,-9.330939557151407,-0.47875523638539796,4104.029304029304,1860.8058608058607,2.0,3.4395604395604398,290.73482428115017,-7.297709923664121,9.114503816793892,-3.618320610687023,-0.9190404797601199,0.10494752623688156,-0.4752623688155922,1358.974358974359,97.07940872923737,29.94340149499476,
1770981353476.337,4.1521739130434785,-6.032608695652174,1.891304347826087,2.1615798922800717,-9.369239976062238,-0.5074805505685218,4127.472527472527,1709.1575091575091,2.0,3.4410256410256412,290.6110283159463,-7.541984732824427,8.687022900763358,-3.099236641221374,-0.9190404797601199,0.11394302848575712,-0.4752623688155922,1382.4175824175823,97.07372592618196,29.94340149499476,
1770981353495.8682,4.173913043478261,-6.065217391304348,1.891304347826087,2.1567923399162177,-9.429084380610412,-0.466786355475763,4127.472527472527,1667.3992673992673,2.0,3.4424908424908427,290.4873377314322,-8.13740458015267,8.51908396946565,-2.5343511450381677,-0.9250374812593702,0.09745127436281859,-0.472263868065967,1394.8717948717947,97.07372592618196,29.94340149499476,
1770981353515.3992,4.195652173913043,-6.076086956521739,1.891304347826087,2.2094554159186117,-9.436265709156194,-0.46439257929383604,4118.681318681319,1886.4468864468863,2.0,3.4424908424908427,290.4873377314322,-8.458015267175572,8.65648854961832,-1.3740458015267174,-0.9235382308845577,0.12743628185907047,-0.4872563718140929,1394.139194139194,97.07656732631685,29.94340149499476,
1770981353534.9304,4.206521739130435,-6.076086956521739,1.9782608695652173,2.2046678635547576,-9.460203470975463,-0.41172950329144226,4127.472527472527,1716.4835164835163,2.0,3.4424908424908427,290.4873377314322,-9.587786259541984,9.099236641221374,-0.8549618320610687,-0.9205397301349325,0.08995502248875561,-0.472263868065967,1386.8131868131868,97.07940872923737,29.94340149499476,
1770981353554.4614,4.228260869565217,-6.08695652173913,2.010869565217391,2.1926989826451226,-9.476959904248952,-0.3758228605625374,4127.472527472527,1669.5970695970695,2.0,3.4439560439560437,290.36375239310786,-9.557251908396946,9.81679389312977,-0.183206106870229,-0.9235382308845577,0.08845577211394302,-0.46926536731634183,1377.2893772893772,97.07940872923737,29.94340149499476,
1770981353573.9924,4.195652173913043,-6.0978260869565215,1.9565217391304348,2.2309994015559544,-9.474566128067025,-0.38300418910831835,4127.472527472527,1655.6776556776556,2.0,3.4454212454212456,290.2402721667021,-9.557251908396946,9.34351145038168,0.07633587786259542,-0.9235382308845577,0.11544227886056971,-0.46926536731634183,1353.8461538461538,97.07088452883275,29.94340149499476,
1770981353593.5237,4.217391304347826,-6.08695652173913,1.9782608695652173,2.1974865350089767,-9.457809694793536,-0.3901855176540993,4128.937728937729,1652.7472527472526,2.0,3.446886446886447,290.11689691817213,-8.931297709923664,8.82442748091603,0.183206106870229,-0.9175412293853074,0.10944527736131934,-0.46326836581709147,1328.2051282051282,97.07656732631685,29.94340149499476,
1770981353613.0547,4.25,-6.119565217391304,1.9891304347826086,2.2286056253740276,-9.457809694793536,-0.38061041292639136,4112.820512820513,1875.4578754578754,2.0,3.446886446886447,290.11689691817213,-8.396946564885496,8.13740458015267,-0.15267175572519084,-0.9160419790104948,0.11244377811094453,-0.4737631184407796,1315.018315018315,97.07656732631685,29.94340149499476,
1770981353632.5857,4.260869565217392,-6.184782608695652,2.043478260869565,2.264512268102932,-9.541591861160981,-0.31358467983243565,4102.5641025641025,1917.9487179487178,2.0,3.4483516483516485,289.99362651370296,-8.076335877862595,7.7251908396946565,-0.13740458015267176,-0.9175412293853074,0.08695652173913043,-0.4767616191904048,1322.3443223443223,97.07656732631685,29.94340149499476,
1770981353652.117,4.260869565217392,-6.195652173913043,2.0760869565217392,2.2812687013764212,-9.60622381807301,-0.26570915619389585,4127.472527472527,1725.2747252747251,2.0,3.4483516483516485,289.99362651370296,-6.977099236641221,7.2824427480916025,-0.6259541984732824,-0.9235382308845577,0.08095952023988005,-0.47826086956521735,1341.3919413919414,97.08225013494354,29.94340149499476,
1770981353671.648,4.239130434782608,-6.217391304347826,2.0543478260869565,2.2573309395571513,-9.594254937163376,-0.26810293237582283,4120.14652014652,1899.6336996336995,2.0,3.4512820512820515,289.74739970282315,-6.442748091603053,6.748091603053435,-0.9618320610687022,-0.9085457271364318,0.10794602698650674,-0.47826086956521735,1343.5897435897434,97.07656732631685,29.94340149499476,
1770981353691.1792,4.228260869565217,-6.239130434782608,2.0217391304347827,2.2190305206463194,-9.6229802513465,-0.3064033512866547,4101.098901098901,1929.6703296703295,2.0,3.4512820512820515,289.74739970282315,-5.770992366412213,5.786259541984733,-1.5114503816793892,-0.9250374812593702,0.0914542728635682,-0.472263868065967,1336.9963369963368,97.08509154343534,29.94340149499476,
1770981353710.7102,4.228260869565217,-6.260869565217391,2.010869565217391,2.2333931777378813,-9.65409934171155,-0.33273488928785155,4128.937728937729,1730.4029304029302,2.0,3.452747252747253,289.62444302991724,-4.259541984732825,4.549618320610687,-2.2900763358778624,-0.9145427286356821,0.09895052473763118,-0.4737631184407796,1321.6117216117216,97.07656732631685,29.94340149499476,
1770981353730.2412,4.195652173913043,-6.217391304347826,2.010869565217391,2.2357869539198085,-9.646918013165768,-0.33034111310592457,4127.472527472527,1673.260073260073,2.0,3.452747252747253,289.62444302991724,-3.4045801526717554,3.4045801526717554,-3.068702290076336,-0.9235382308845577,0.12293853073463268,-0.47976011994003,1352.3809523809523,97.07372592618196,29.94340149499476,
1770981353749.7725,4.173913043478261,-6.163043478260869,1.9891304347826086,2.159186116098145,-9.570317175344105,-0.3399162178336326,4128.937728937729,1657.8754578754579,2.0,3.454212454212455,289.50159066808055,-2.091603053435114,2.5343511450381677,-3.6946564885496183,-0.9205397301349325,0.09295352323838081,-0.4737631184407796,1452.014652014652,97.07940872923737,29.94340149499476,
1770981353769.3037,4.108695652173913,-6.130434782608695,1.9239130434782608,2.135248354278875,-9.517654099341712,-0.40933572710951527,4115.750915750916,1877.6556776556774,2.0,3.454212454212455,289.50159066808055,-1.3893129770992365,0.8702290076335878,-4.0,-0.9190404797601199,0.11094452773613193,-0.4752623688155922,1581.6849816849815,97.07940872923737,29.94340149499476,
1770981353788.8347,4.1521739130434785,-6.195652173913043,1.934782608695652,2.1137043686415318,-9.58228605625374,-0.46199880311190905,4128.937728937729,1715.018315018315,2.0,3.455677655677656,289.37884248463007,-1.9083969465648853,-0.12213740458015267,-3.9847328244274807,-0.9250374812593702,0.09895052473763118,-0.4737631184407796,1708.4249084249084,97.07940872923737,29.94340149499476,
1770981353808.3655,4.130434782608695,-6.184782608695652,1.9130434782608696,2.108916816277678,-9.601436265709156,-0.466786355475763,4128.937728937729,1670.3296703296703,2.0,3.455677655677656,289.37884248463007,-1.450381679389313,-1.114503816793893,-3.6946564885496183,-0.9145427286356821,0.10044977511244378,-0.4677661169415292,1813.186813186813,97.07940872923737,29.94340149499476,
1770981353827.8967,4.130434782608695,-6.141304347826087,1.9130434782608696,2.094554159186116,-9.543985637342908,-0.476361460203471,4120.14652014652,1882.7838827838827,2.0,3.457142857142857,289.25619834710744,-1.3282442748091603,-1.0229007633587786,-3.2519083969465647,-0.9160419790104948,0.09895052473763118,-0.49025487256371814,1860.07326007326,97.07372592618196,29.94340149499476,
1770981353847.428,4.130434782608695,-6.184782608695652,1.8695652173913042,2.084979054458408,-9.551166965888688,-0.4859365649311789,4128.937728937729,1716.4835164835163,2.0,3.4586080586080588,289.13365812327896,-1.7862595419847327,-1.3129770992366412,-2.213740458015267,-0.9190404797601199,0.08995502248875561,-0.472263868065967,1841.7582417582416,97.07940872923737,29.94340149499476,
1770981353866.959,4.108695652173913,-6.119565217391304,1.9021739130434783,2.084979054458408,-9.536804308797127,-0.48114901256732495,4128.937728937729,1670.3296703296703,2.0,3.4586080586080588,289.13365812327896,-1.7251908396946565,-1.1450381679389312,-1.099236641221374,-0.9115442278860569,0.08845577211394302,-0.48875562218890556,1775.091575091575,97.07088452883275,29.94340149499476,
1770981353886.4902,4.076086956521739,-6.108695652173913,1.9130434782608696,2.0777977259126272,-9.481747456612807,-0.466786355475763,4127.472527472527,1655.6776556776556,2.0,3.4600732600732598,289.0112216811349,-1.2061068702290076,-1.9083969465648853,-0.549618320610687,-0.9190404797601199,0.11094452773613193,-0.4752623688155922,1673.260073260073,97.07372592618196,29.94340149499476,
1770981353906.0212,4.054347826086956,-6.108695652173913,1.9456521739130435,2.0466786355475763,-9.476959904248952,-0.45242369838420105,4128.937728937729,1652.7472527472526,2.0,3.461538461538462,288.88888888888886,-0.9007633587786259,-3.32824427480916,0.2748091603053435,-0.9190404797601199,0.10194902548725637,-0.48425787106446777,1548.7179487179485,97.07656732631685,29.94340149499476,
1770981353925.5522,4.08695652173913,-6.163043478260869,1.9456521739130435,2.049072411729503,-9.532016756433274,-0.43566726511071213,4118.681318681319,1882.7838827838827,2.0,3.461538461538462,288.88888888888886,-0.5954198473282443,-4.564885496183206,0.4427480916030534,-0.9205397301349325,0.10944527736131934,-0.4752623688155922,1415.3846153846152,97.07656732631685,29.94340149499476,
1770981353945.0835,4.054347826086956,-6.119565217391304,1.9021739130434783,2.082585278276481,-9.515260323159785,-0.45960502692998206,4130.40293040293,1722.3443223443223,2.0,3.463003663003663,288.76665961497775,-0.21374045801526717,-6.595419847328244,0.13740458015267176,-0.9235382308845577,0.0944527736131934,-0.4767616191904048,1303.2967032967033,97.08225013494354,29.94340149499476,
1770981353964.6145,4.054347826086956,-6.010869565217392,1.9130434782608696,2.0418910831837223,-9.3836026331538,-0.45242369838420105,4128.937728937729,1671.7948717948716,2.0,3.4644688644688646,288.6445337280609,1.129770992366412,-8.885496183206106,-1.099236641221374,-0.9130434782608695,0.095952023988006,-0.4752623688155922,1219.047619047619,97.07372592618196,29.94340149499476,
1770981353984.1458,4.076086956521739,-5.989130434782608,1.9239130434782608,2.0394973070017954,-9.36684619988031,-0.4404548174745661,4120.14652014652,1883.5164835164833,2.0,3.4644688644688646,288.6445337280609,1.099236641221374,-10.900763358778626,-1.3129770992366412,-0.9235382308845577,0.08995502248875561,-0.48275862068965514,1179.4871794871794,97.07088452883275,29.94340149499476,
1770981354003.6768,4.130434782608695,-6.076086956521739,1.891304347826087,2.104129263913824,-9.429084380610412,-0.46439257929383604,4101.098901098901,1925.2747252747251,2.0,3.465934065934066,288.5225110970197,0.7480916030534351,-12.732824427480915,-1.9389312977099236,-0.9220389805097451,0.09895052473763118,-0.4767616191904048,1181.6849816849815,97.07088452883275,29.94340149499476,
1770981354023.2078,4.141304347826087,-6.043478260869565,1.9021739130434783,2.140035906642729,-9.429084380610412,-0.48114901256732495,4128.937728937729,1728.937728937729,2.0,3.4673992673992675,288.4005915909571,0.9007633587786259,-12.793893129770991,-1.4809160305343512,-0.9250374812593702,0.0944527736131934,-0.47976011994003,1224.1758241758241,97.08225013494354,29.94340149499476,
1770981354042.739,4.130434782608695,-5.945652173913043,1.8804347826086956,2.104129263913824,-9.333333333333334,-0.5122681029323758,4127.472527472527,1673.260073260073,2.0,3.4688644688644694,288.27877507919743,0.8396946564885496,-12.381679389312977,-0.9007633587786259,-0.9220389805097451,0.1199400299850075,-0.48575712143928035,1287.9120879120878,97.07940872923737,29.94340149499476,
1770981354062.27,4.163043478260869,-5.945652173913043,1.8804347826086956,2.1137043686415318,-9.304608019150209,-0.4931178934769599,4128.937728937729,1657.8754578754579,2.0,3.4688644688644694,288.27877507919743,0.2595419847328244,-12.045801526717558,-0.21374045801526717,-0.9205397301349325,0.12293853073463268,-0.47976011994003,1337.7289377289376,97.07656732631685,29.94340149499476,
1770981354081.801,4.163043478260869,-5.923913043478261,1.9130434782608696,2.1448234590065827,-9.297426690604429,-0.5098743267504489,4104.029304029304,1862.2710622710622,2.0,3.4688644688644694,288.27877507919743,-0.549618320610687,-11.541984732824426,0.7938931297709924,-0.9190404797601199,0.10194902548725637,-0.48875562218890556,1368.4981684981683,97.07656732631685,29.94340149499476,
1770981354101.3325,4.206521739130435,-5.913043478260869,1.9021739130434783,2.1879114302812686,-9.266307600239378,-0.4907241172950329,4128.937728937729,1710.6227106227104,2.0,3.47032967032967,288.1570614312856,-0.9618320610687022,-11.145038167938932,1.099236641221374,-0.9130434782608695,0.08995502248875561,-0.47826086956521735,1397.069597069597,97.07940872923737,29.94340149499476,
1770981354120.8633,4.239130434782608,-5.913043478260869,1.891304347826087,2.2429682824655894,-9.254338719329743,-0.48114901256732495,4128.937728937729,1668.8644688644688,2.0,3.47032967032967,288.1570614312856,-1.8778625954198473,-10.778625954198473,1.6946564885496183,-0.9130434782608695,0.10644677661169415,-0.46476761619190404,1402.197802197802,97.07940872923737,29.94340149499476,
1770981354140.3943,4.282608695652174,-5.934782608695652,1.891304347826087,2.2429682824655894,-9.271095152603232,-0.48114901256732495,4118.681318681319,1887.179487179487,2.0,3.471794871794872,288.0354505169867,-2.259541984732824,-9.877862595419847,2.5343511450381677,-0.9130434782608695,0.10494752623688156,-0.4737631184407796,1388.278388278388,97.07940872923737,29.94340149499476,
1770981354159.9255,4.293478260869565,-5.978260869565217,1.8804347826086956,2.2980251346499103,-9.345302214242968,-0.4859365649311789,4101.098901098901,1926.7399267399267,2.0,3.471794871794872,288.0354505169867,-2.8702290076335877,-9.587786259541984,2.549618320610687,-0.9100449775112444,0.12443778110944527,-0.4737631184407796,1360.4395604395604,97.07372592618196,29.94340149499476,
1770981354179.4563,4.3478260869565215,-5.978260869565217,1.9239130434782608,2.357869539198085,-9.342908438061041,-0.48354278874925194,4127.472527472527,1728.2051282051282,2.0,3.471794871794872,288.0354505169867,-3.236641221374046,-8.778625954198473,2.931297709923664,-0.9130434782608695,0.0944527736131934,-0.47826086956521735,1325.2747252747251,97.07656732631685,29.94340149499476,
1770981354198.9878,4.391304347826087,-5.967391304347826,2.0,2.391382405745063,-9.33572710951526,-0.3997606223818073,4124.542124542124,1912.8205128205127,2.0,3.471794871794872,288.0354505169867,-3.969465648854962,-8.259541984732824,3.633587786259542,-0.9190404797601199,0.095952023988006,-0.4767616191904048,1294.5054945054944,97.07940872923737,29.94340149499476,
1770981354218.5188,4.4021739130434785,-6.032608695652174,2.0,2.4201077199281866,-9.400359066427288,-0.33034111310592457,4127.472527472527,1723.8095238095236,2.0,3.471794871794872,288.0354505169867,-5.480916030534351,-7.32824427480916,4.091603053435114,-0.9115442278860569,0.10194902548725637,-0.4677661169415292,1285.7142857142856,97.08100088741173,29.953451351472175,
1770981354238.05,4.423913043478261,-6.08695652173913,2.032608695652174,2.4248952722920407,-9.481747456612807,-0.3207660083782166,4120.14652014652,1898.9010989010987,2.0,3.471794871794872,288.0354505169867,-6.534351145038167,-6.7328244274809155,3.7709923664122136,-0.9100449775112444,0.09745127436281859,-0.46476761619190404,1287.9120879120878,97.086683794117,29.953451351472175,
1770981354257.581,4.413043478260869,-6.108695652173913,2.032608695652174,2.4248952722920407,-9.498503889886296,-0.3016157989228007,4128.937728937729,1720.8791208791208,2.0,3.4732600732600734,287.9139422062856,-6.061068702290076,-6.091603053435114,2.931297709923664,-0.9070464767616192,0.12143928035982009,-0.48275862068965514,1293.7728937728937,97.08100088741173,29.953451351472175,
1770981354277.112,4.380434782608695,-6.119565217391304,2.0760869565217392,2.4153201675643325,-9.496110113704368,-0.2800718132854578,4127.472527472527,1670.3296703296703,2.0,3.4732600732600734,287.9139422062856,-5.6183206106870225,-6.427480916030534,1.1755725190839694,-0.9070464767616192,0.1169415292353823,-0.472263868065967,1302.5641025641025,97.08100088741173,29.953451351472175,
1770981354296.6433,4.358695652173913,-6.119565217391304,2.0869565217391304,2.381807301017355,-9.493716337522441,-0.2992220227408737,4118.681318681319,1887.9120879120878,2.0,3.4732600732600734,287.9139422062856,-4.7328244274809155,-7.801526717557252,-0.7786259541984732,-0.9085457271364318,0.10044977511244378,-0.46926536731634183,1317.216117216117,97.08100088741173,29.953451351472175,
1770981354316.1743,4.33695652173913,-6.043478260869565,2.0869565217391304,2.3650508677438657,-9.405146618791143,-0.2728904847396768,4128.937728937729,1717.9487179487178,2.0,3.4732600732600734,287.9139422062856,-3.0381679389312977,-8.961832061068701,-2.229007633587786,-0.9085457271364318,0.08845577211394302,-0.4677661169415292,1333.3333333333333,97.07531799184939,29.953451351472175,
1770981354335.7056,4.3478260869565215,-5.989130434782608,2.108695652173913,2.357869539198085,-9.364452423698385,-0.2513464991023339,4128.937728937729,1664.4688644688645,2.0,3.4747252747252744,287.7925363693865,-2.4732824427480917,-9.572519083969466,-3.2671755725190836,-0.9070464767616192,0.10794602698650674,-0.4872563718140929,1376.5567765567764,97.07531799184939,29.953451351472175,
1770981354355.2366,4.3478260869565215,-5.989130434782608,2.0652173913043477,2.357869539198085,-9.352483542788748,-0.2824655894673848,4128.937728937729,1655.6776556776556,2.0,3.4732600732600734,287.9139422062856,-2.381679389312977,-9.908396946564885,-4.1679389312977095,-0.9055472263868065,0.11094452773613193,-0.4662668665667166,1457.142857142857,97.086683794117,29.953451351472175,
1770981354374.7676,4.3478260869565215,-6.010869565217392,2.043478260869565,2.348294434470377,-9.357271095152603,-0.3399162178336326,4120.14652014652,1878.3882783882782,2.0,3.4747252747252744,287.7925363693865,-2.6564885496183206,-9.81679389312977,-4.076335877862595,-0.9115442278860569,0.10194902548725637,-0.48125937031484256,1576.5567765567764,97.07815943823769,29.953451351472175,
1770981354394.2988,4.358695652173913,-6.0,2.010869565217391,2.333931777378815,-9.378815080789947,-0.3231597845601436,4104.029304029304,1925.2747252747251,2.0,3.4747252747252744,287.7925363693865,-2.748091603053435,-9.786259541984732,-3.8625954198473282,-0.9100449775112444,0.09295352323838081,-0.4767616191904048,1712.8205128205127,97.08100088741173,29.953451351472175,
1770981354413.8298,4.358695652173913,-6.0978260869565215,1.967391304347826,2.355475763016158,-9.388390185517654,-0.38300418910831835,4101.098901098901,1937.7289377289376,2.0,3.476190476190476,287.67123287671234,-3.2519083969465647,-9.31297709923664,-3.3587786259541983,-0.9085457271364318,0.11544227886056971,-0.4737631184407796,1831.5018315018315,97.08100088741173,29.953451351472175,
1770981354433.361,4.391304347826087,-6.163043478260869,1.9239130434782608,2.39377618192699,-9.529622980251347,-0.41172950329144226,4128.937728937729,1732.6007326007325,2.0,3.4747252747252744,287.7925363693865,-4.3206106870229,-8.458015267175572,-2.717557251908397,-0.9175412293853074,0.10494752623688156,-0.4662668665667166,1904.0293040293038,97.08100088741173,29.953451351472175,
1770981354452.892,4.4021739130434785,-6.217391304347826,1.891304347826087,2.405745062836625,-9.634949132256134,-0.4931178934769599,4117.216117216117,1900.3663003663003,2.0,3.4747252747252744,287.7925363693865,-4.351145038167939,-7.877862595419847,-1.7862595419847327,-0.9070464767616192,0.09745127436281859,-0.4677661169415292,1915.7509157509155,97.08100088741173,29.953451351472175,
1770981354472.423,4.423913043478261,-6.1521739130434785,1.891304347826087,2.410532615200479,-9.594254937163376,-0.5026929982046678,4128.937728937729,1721.6117216117216,2.0,3.4747252747252744,287.7925363693865,-4.549618320610687,-6.7328244274809155,-1.6946564885496183,-0.9085457271364318,0.10494752623688156,-0.4707646176911544,1865.201465201465,97.07531799184939,29.953451351472175,
1770981354491.9543,4.423913043478261,-5.967391304347826,1.9456521739130435,2.4225014961101135,-9.42429682824656,-0.4452423698384201,4128.937728937729,1671.7948717948716,2.0,3.4747252747252744,287.7925363693865,-4.580152671755725,-5.404580152671755,-1.6335877862595418,-0.9040479760119939,0.10044977511244378,-0.4752623688155922,1760.4395604395604,97.07531799184939,29.953451351472175,
1770981354511.4854,4.434782608695652,-5.815217391304348,2.0,2.4344703770197484,-9.20885697187313,-0.3877917414721723,4126.007326007326,1649.8168498168498,2.0,3.4747252747252744,287.7925363693865,-5.984732824427481,-3.32824427480916,-1.297709923664122,-0.9010494752623688,0.11544227886056971,-0.47826086956521735,1629.3040293040292,97.07531799184939,29.953451351472175,
1770981354531.0164,4.413043478260869,-5.858695652173913,1.967391304347826,2.4392579293836025,-9.182525433871932,-0.4021543985637343,4121.611721611721,1882.7838827838827,2.0,3.476190476190476,287.67123287671234,-7.969465648854961,-1.618320610687023,-0.9618320610687022,-0.9070464767616192,0.1169415292353823,-0.4737631184407796,1498.9010989010987,97.07815943823769,29.953451351472175,
1770981354550.5476,4.4021739130434785,-5.826086956521739,1.9239130434782608,2.4081388390185516,-9.180131657690005,-0.41651705565529623,4105.494505494506,1926.7399267399267,2.0,3.476190476190476,287.67123287671234,-9.206106870229007,0.5190839694656488,-0.3053435114503817,-0.9070464767616192,0.10644677661169415,-0.46476761619190404,1383.8827838827838,97.08100088741173,29.953451351472175,
1770981354570.0786,4.391304347826087,-5.793478260869565,1.9565217391304348,2.4201077199281866,-9.156193895870736,-0.41651705565529623,4128.937728937729,1728.937728937729,2.0,3.476190476190476,287.67123287671234,-9.16030534351145,3.3740458015267176,0.21374045801526717,-0.9085457271364318,0.10794602698650674,-0.4587706146926537,1298.9010989010987,97.07531799184939,29.953451351472175,
1770981354589.61,4.369565217391305,-5.804347826086956,2.010869565217391,2.386594853381209,-9.125074805505685,-0.36146020347097546,4128.937728937729,1673.9926739926739,2.0,3.4747252747252744,287.7925363693865,-8.717557251908397,5.541984732824427,1.099236641221374,-0.9025487256371814,0.09745127436281859,-0.46476761619190404,1243.956043956044,97.08100088741173,29.953451351472175,
1770981354609.1409,4.315217391304348,-5.858695652173913,2.0217391304347827,2.336325553560742,-9.182525433871932,-0.3399162178336326,4115.750915750916,1882.051282051282,2.0,3.4747252747252744,287.7925363693865,-8.885496183206106,6.6106870229007635,2.1068702290076335,-0.9100449775112444,0.12743628185907047,-0.48275862068965514,1228.5714285714284,97.07815943823769,29.953451351472175,
1770981354628.672,4.293478260869565,-5.891304347826087,1.9782608695652173,2.319569120287253,-9.242369838420107,-0.38300418910831835,4128.937728937729,1715.7509157509157,2.0,3.4747252747252744,287.7925363693865,-8.732824427480915,6.2748091603053435,2.091603053435114,-0.9070464767616192,0.0914542728635682,-0.4707646176911544,1248.3516483516482,97.0838423393715,29.953451351472175,
1770981354648.2031,4.326086956521739,-5.956521739130435,1.9782608695652173,2.341113105924596,-9.307001795332136,-0.3877917414721723,4128.937728937729,1670.3296703296703,2.0,3.4747252747252744,287.7925363693865,-8.259541984732824,4.778625954198473,1.4045801526717556,-0.9070464767616192,0.10044977511244378,-0.46026986506746626,1283.5164835164835,97.08100088741173,29.953451351472175,
1770981354667.734,4.391304347826087,-6.076086956521739,1.9456521739130435,2.381807301017355,-9.426690604428485,-0.4260921603830042,4128.937728937729,1657.142857142857,2.0,3.4747252747252744,287.7925363693865,-7.969465648854961,3.2671755725190836,0.32061068702290074,-0.9145427286356821,0.095952023988006,-0.46026986506746626,1322.3443223443223,97.08100088741173,29.953451351472175,
1770981354687.2654,4.413043478260869,-6.206521739130435,1.9130434782608696,2.4272890484739675,-9.543985637342908,-0.43087971274685816,4130.40293040293,1660.07326007326,2.0,3.4747252747252744,287.7925363693865,-7.419847328244274,1.816793893129771,-1.0076335877862594,-0.9055472263868065,0.12593703148425786,-0.4707646176911544,1366.3003663003662,97.0838423393715,29.953451351472175,
1770981354706.7964,4.413043478260869,-6.293478260869565,1.8695652173913042,2.4248952722920407,-9.706762417713943,-0.45002992220227406,4105.494505494506,1863.7362637362637,2.0,3.4732600732600734,287.9139422062856,-7.007633587786259,1.0534351145038168,-2.198473282442748,-0.9160419790104948,0.095952023988006,-0.46476761619190404,1401.4652014652013,97.0838423393715,29.953451351472175,
1770981354726.3274,4.369565217391305,-6.315217391304348,1.891304347826087,2.4033512866546975,-9.721125074805505,-0.476361460203471,4127.472527472527,1709.1575091575091,2.0,3.471794871794872,288.0354505169867,-6.290076335877862,1.2671755725190839,-3.618320610687023,-0.9115442278860569,0.11244377811094453,-0.4737631184407796,1421.245421245421,97.06963510742996,29.953451351472175,
1770981354745.8586,4.326086956521739,-6.260869565217391,1.891304347826087,2.3530819868342308,-9.675643327348892,-0.45960502692998206,4128.937728937729,1668.131868131868,2.0,3.47032967032967,288.1570614312856,-4.8396946564885495,1.2366412213740459,-4.916030534351145,-0.9130434782608695,0.10944527736131934,-0.45577211394302847,1434.4322344322343,97.08100088741173,29.953451351472175,
1770981354765.3896,4.282608695652174,-6.217391304347826,1.9021739130434783,2.2932375822860562,-9.615798922800717,-0.48354278874925194,4115.750915750916,1880.5860805860805,2.0,3.47032967032967,288.1570614312856,-4.458015267175572,1.450381679389313,-5.938931297709924,-0.9025487256371814,0.10494752623688156,-0.46476761619190404,1441.0256410256409,97.07815943823769,29.953451351472175,
1770981354784.921,4.282608695652174,-6.239130434782608,1.8695652173913042,2.2812687013764212,-9.611011370436865,-0.4955116696588869,4128.937728937729,1715.7509157509157,2.0,3.47032967032967,288.1570614312856,-4.595419847328244,0.6564885496183206,-6.580152671755725,-0.9085457271364318,0.10794602698650674,-0.4662668665667166,1435.164835164835,97.07815943823769,29.953451351472175,
1770981354804.452,4.282608695652174,-6.25,1.9130434782608696,2.2740873728306403,-9.649311789347696,-0.476361460203471,4128.937728937729,1670.3296703296703,2.0,3.4688644688644694,288.27877507919743,-4.763358778625954,1.4045801526717556,-6.2748091603053435,-0.9115442278860569,0.10044977511244378,-0.45727136431784104,1416.8498168498168,97.07531799184939,29.953451351472175,
1770981354823.983,4.304347826086956,-6.195652173913043,1.9130434782608696,2.295631358467983,-9.615798922800717,-0.4428485936564931,4127.472527472527,1655.6776556776556,2.0,3.4673992673992675,288.4005915909571,-5.175572519083969,3.5572519083969465,-5.2824427480916025,-0.9025487256371814,0.08995502248875561,-0.46026986506746626,1405.8608058608058,97.07531799184939,29.953451351472175,
1770981354843.5142,4.282608695652174,-6.141304347826087,1.9565217391304348,2.2980251346499103,-9.570317175344105,-0.4260921603830042,4120.14652014652,1878.3882783882782,2.0,3.465934065934066,288.5225110970197,-5.068702290076335,5.419847328244274,-4.076335877862595,-0.9085457271364318,0.08995502248875561,-0.4707646176911544,1394.8717948717947,97.08100088741173,29.953451351472175,
1770981354863.0452,4.239130434782608,-6.119565217391304,1.9130434782608696,2.2405745062836626,-9.481747456612807,-0.4404548174745661,4126.007326007326,1706.9597069597069,2.0,3.465934065934066,288.5225110970197,-4.519083969465648,7.816793893129771,-2.3053435114503817,-0.9175412293853074,0.10794602698650674,-0.46476761619190404,1378.021978021978,97.08100088741173,29.953451351472175,
1770981354882.5764,4.228260869565217,-6.119565217391304,1.891304347826087,2.2118491921005385,-9.491322561340514,-0.457211250748055,4128.937728937729,1668.131868131868,2.0,3.4644688644688646,288.6445337280609,-3.3587786259541983,9.572519083969466,-0.7633587786259541,-0.9040479760119939,0.10194902548725637,-0.46326836581709147,1367.032967032967,97.08100088741173,29.953451351472175,
1770981354902.1074,4.217391304347826,-6.032608695652174,1.9565217391304348,2.2166367444643926,-9.443447037701974,-0.45002992220227406,4128.937728937729,1656.4102564102564,2.0,3.463003663003663,288.76665961497775,-1.2213740458015268,12.0,0.366412213740458,-0.9160419790104948,0.10044977511244378,-0.46476761619190404,1374.3589743589744,97.07531799184939,29.953451351472175,
1770981354921.6384,4.195652173913043,-6.0,1.9565217391304348,2.2046678635547576,-9.371633752244165,-0.4021543985637343,4114.285714285714,1871.0622710622708,2.0,3.463003663003663,288.76665961497775,0.33587786259541985,12.931297709923664,1.1450381679389312,-0.9100449775112444,0.095952023988006,-0.46476761619190404,1385.3479853479853,97.08100088741173,29.953451351472175,
1770981354941.1697,4.195652173913043,-5.956521739130435,2.0,2.1926989826451226,-9.333333333333334,-0.3590664272890485,4130.40293040293,1719.4139194139193,2.0,3.461538461538462,288.88888888888886,0.3053435114503817,12.442748091603052,1.1603053435114503,-0.9025487256371814,0.0944527736131934,-0.46176911544227883,1379.4871794871794,97.086683794117,29.953451351472175,
1770981354960.7007,4.130434782608695,-6.021739130434782,2.0543478260869565,2.1687612208258527,-9.357271095152603,-0.3040095751047277,4128.937728937729,1671.0622710622708,2.0,3.4600732600732598,289.0112216811349,-1.7862595419847327,10.65648854961832,1.129770992366412,-0.9085457271364318,0.10494752623688156,-0.46476761619190404,1342.1245421245421,97.07815943823769,29.953451351472175,
1770981354980.2317,3.9891304347826084,-6.130434782608695,2.0543478260869565,1.9988031119090364,-9.453022142429683,-0.3016157989228007,4127.472527472527,1655.6776556776556,2.0,3.4586080586080588,289.13365812327896,-1.9236641221374045,7.938931297709924,1.083969465648855,-0.9160419790104948,0.10944527736131934,-0.4752623688155922,1295.2380952380952,97.08100088741173,29.953451351472175,
1770981354999.763,4.173913043478261,-6.0978260869565215,2.0,2.0777977259126272,-9.51047277079593,-0.3255535607420706,4117.216117216117,1877.6556776556774,2.0,3.457142857142857,289.25619834710744,-2.183206106870229,3.801526717557252,-0.8549618320610687,-0.9160419790104948,0.11394302848575712,-0.47976011994003,1281.3186813186812,97.07815943823769,29.953451351472175,
1770981355019.294,4.217391304347826,-6.108695652173913,1.9782608695652173,2.2357869539198085,-9.45541591861161,-0.3925792938360263,4126.007326007326,1706.9597069597069,2.0,3.455677655677656,289.37884248463007,-3.450381679389313,1.0229007633587786,-0.9007633587786259,-0.9055472263868065,0.09895052473763118,-0.4662668665667166,1335.5311355311355,97.07815943823769,29.953451351472175,
1770981355038.8252,4.25,-6.206521739130435,1.891304347826087,2.2309994015559544,-9.579892280071814,-0.476361460203471,4127.472527472527,1666.6666666666665,2.0,3.454212454212455,289.50159066808055,-3.7404580152671754,-0.0916030534351145,-1.5572519083969465,-0.9160419790104948,0.09895052473763118,-0.4677661169415292,1470.3296703296703,97.0838423393715,29.953451351472175,
1770981355058.3562,4.315217391304348,-6.206521739130435,1.8369565217391304,2.331538001196888,-9.6229802513465,-0.5194494314781568,4127.472527472527,1654.9450549450548,2.0,3.452747252747253,289.62444302991724,-3.312977099236641,-0.366412213740458,-1.984732824427481,-0.9205397301349325,0.09745127436281859,-0.4677661169415292,1623.4432234432234,97.08100088741173,29.953451351472175,
1770981355077.8872,4.293478260869565,-6.163043478260869,1.8478260869565217,2.331538001196888,-9.577498503889887,-0.5314183123877917,4111.355311355311,1870.3296703296703,2.0,3.4512820512820515,289.74739970282315,-2.1374045801526718,-0.41221374045801523,-3.282442748091603,-0.9130434782608695,0.11094452773613193,-0.46926536731634183,1745.7875457875457,97.07531799184939,29.953451351472175,
1770981355097.4185,4.173913043478261,-6.119565217391304,1.7826086956521738,2.166367444643926,-9.493716337522441,-0.6008378216636744,4101.098901098901,1921.6117216117216,2.0,3.44981684981685,289.8704608197069,-1.8931297709923662,-2.4122137404580153,-4.534351145038168,-0.9085457271364318,0.1169415292353823,-0.46476761619190404,1805.8608058608058,97.07815943823769,29.953451351472175,
1770981355116.9497,3.9891304347826084,-6.119565217391304,1.7608695652173914,1.9916217833632555,-9.496110113704368,-0.6128067025733094,4127.472527472527,1726.7399267399267,2.0,3.4483516483516485,289.99362651370296,-1.7862595419847327,-8.549618320610687,-6.229007633587786,-0.9145427286356821,0.10944527736131934,-0.47976011994003,1810.2564102564102,97.08100088741173,29.953451351472175,
1770981355136.4807,3.9239130434782608,-6.119565217391304,1.8695652173913042,1.9030520646319569,-9.508078994614003,-0.5553560742070617,4127.472527472527,1672.5274725274724,2.0,3.446886446886447,290.11689691817213,-1.4045801526717556,-19.526717557251906,-8.351145038167939,-0.9100449775112444,0.10344827586206896,-0.4737631184407796,1772.161172161172,97.086683794117,29.953451351472175,
1770981355156.0117,4.08695652173913,-6.043478260869565,1.8152173913043477,2.0347097546379413,-9.426690604428485,-0.5409934171154996,4128.937728937729,1657.8754578754579,2.0,3.4454212454212456,290.2402721667021,-2.6717557251908395,-24.702290076335878,-9.267175572519083,-0.9055472263868065,0.09745127436281859,-0.4707646176911544,1688.6446886446886,97.08100088741173,29.953451351472175,
1770981355175.5427,4.25,-6.065217391304348,1.7826086956521738,2.2573309395571513,-9.419509275882705,-0.6199880311190904,4104.029304029304,1862.2710622710622,2.0,3.4439560439560437,290.36375239310786,-3.3587786259541983,-26.16793893129771,-9.145038167938932,-0.9130434782608695,0.08995502248875561,-0.46326836581709147,1584.6153846153845,97.07815943823769,29.953451351472175,
1770981355195.074,4.3478260869565215,-6.065217391304348,1.7065217391304348,2.343506882106523,-9.433871932974267,-0.7157390783961699,4128.937728937729,1710.6227106227104,2.0,3.4424908424908427,290.4873377314322,-3.2519083969465647,-23.48091603053435,-8.82442748091603,-0.9070464767616192,0.095952023988006,-0.46476761619190404,1481.3186813186812,97.07247654824681,29.953451351472175,
1770981355214.605,4.423913043478261,-6.0,1.6739130434782608,2.4081388390185516,-9.41472172351885,-0.7277079593058049,4127.472527472527,1667.3992673992673,2.0,3.4410256410256412,290.6110283159463,-2.8091603053435112,-16.85496183206107,-8.687022900763358,-0.9115442278860569,0.11244377811094453,-0.4677661169415292,1405.8608058608058,97.07168053723709,29.948426423087948,
1770981355234.1362,4.445652173913043,-5.967391304347826,1.6956521739130435,2.4775583482944343,-9.347695990424896,-0.713345302214243,4111.355311355311,1873.260073260073,2.0,3.4395604395604398,290.73482428115017,-2.6412213740458013,-8.67175572519084,-7.236641221374046,-0.9175412293853074,0.10944527736131934,-0.4677661169415292,1355.3113553113553,97.07168053723709,29.948426423087948,
1770981355253.6672,4.391304347826087,-5.967391304347826,1.684782608695652,2.4320766008378216,-9.352483542788748,-0.706163973668462,4128.937728937729,1714.2857142857142,2.0,3.4395604395604398,290.73482428115017,-2.427480916030534,-0.12213740458015267,-5.816793893129771,-0.9025487256371814,0.10344827586206896,-0.4662668665667166,1339.9267399267399,97.08020480702179,29.948426423087948,
1770981355273.1982,4.239130434782608,-5.978260869565217,1.7282608695652173,2.343506882106523,-9.347695990424896,-0.6846199880311191,4130.40293040293,1676.1904761904761,2.0,3.438095238095238,290.85872576177286,-1.7099236641221374,5.633587786259541,-4.595419847328244,-0.9130434782608695,0.08695652173913043,-0.4662668665667166,1374.3589743589744,97.08020480702179,29.948426423087948,
1770981355292.7295,4.130434782608695,-5.967391304347826,1.7282608695652173,2.1926989826451226,-9.316576900059845,-0.6750448833034112,4127.472527472527,1657.8754578754579,2.0,3.4351648351648354,291.106845809341,-2.030534351145038,8.48854961832061,-3.480916030534351,-0.9115442278860569,0.11394302848575712,-0.4662668665667166,1424.9084249084249,97.08020480702179,29.948426423087948,
1770981355312.2605,4.141304347826087,-6.021739130434782,1.7282608695652173,2.116098144823459,-9.362058647516458,-0.6439257929383603,4128.937728937729,1653.4798534798533,2.0,3.4336996336996335,291.2310646468957,-2.3664122137404577,9.98473282442748,-2.748091603053435,-0.9175412293853074,0.10194902548725637,-0.4707646176911544,1468.131868131868,97.08304623585474,29.948426423087948,
1770981355331.7915,4.108695652173913,-6.119565217391304,1.7934782608695652,2.111310592459605,-9.45541591861161,-0.6056253740275284,4126.007326007326,1651.2820512820513,2.0,3.432234432234432,291.3553895410886,-2.381679389312977,9.557251908396946,-1.9541984732824427,-0.9205397301349325,0.10194902548725637,-0.4677661169415292,1498.9010989010987,97.07452195771296,29.948426423087948,
1770981355351.3228,4.08695652173913,-6.119565217391304,1.8043478260869565,2.073010173548773,-9.520047875523638,-0.5721125074805505,4128.937728937729,1651.2820512820513,2.0,3.430769230769231,291.47982062780267,-2.0763358778625953,8.839694656488549,-1.6946564885496183,-0.9115442278860569,0.1184407796101949,-0.4662668665667166,1514.2857142857142,97.08020480702179,29.948426423087948,
1770981355370.8538,4.043478260869565,-6.065217391304348,1.8152173913043477,2.0538599640933572,-9.453022142429683,-0.5697187312986236,4127.472527472527,1650.5494505494505,2.0,3.42930402930403,291.6043580431531,-2.2748091603053435,7.068702290076335,-1.8473282442748091,-0.9070464767616192,0.095952023988006,-0.46926536731634183,1514.2857142857142,97.07452195771296,29.948426423087948,
1770981355390.385,4.065217391304348,-6.054347826086956,1.826086956521739,2.0658288450029922,-9.436265709156194,-0.5457809694793536,4109.89010989011,1868.131868131868,2.0,3.427838827838828,291.7290019234879,-3.0381679389312977,5.893129770992366,-1.8473282442748091,-0.9055472263868065,0.11394302848575712,-0.46926536731634183,1512.8205128205127,97.07736338097453,29.948426423087948,
1770981355409.916,4.065217391304348,-6.130434782608695,1.8369565217391304,2.0418910831837223,-9.500897666068223,-0.5290245362058648,4128.937728937729,1712.087912087912,2.0,3.426373626373627,291.85375240538804,-3.9389312977099236,4.9465648854961835,-2.1374045801526718,-0.9190404797601199,0.095952023988006,-0.46926536731634183,1504.0293040293038,97.08020480702179,29.948426423087948,
1770981355429.447,4.021739130434782,-6.141304347826087,1.858695652173913,2.0227408737283064,-9.522441651705565,-0.5385996409335727,4128.937728937729,1668.8644688644688,2.0,3.424908424908425,291.9786096256684,-4.061068702290076,3.312977099236641,-1.9694656488549618,-0.9145427286356821,0.10794602698650674,-0.46926536731634183,1472.5274725274724,97.07452195771296,29.948426423087948,
1770981355448.9785,4.032608695652174,-6.119565217391304,1.8695652173913042,2.0179533213644523,-9.508078994614003,-0.5074805505685218,4127.472527472527,1655.6776556776556,2.0,3.423443223443224,292.1035737213781,-4.229007633587786,1.9236641221374045,-1.5572519083969465,-0.9130434782608695,0.12143928035982009,-0.4707646176911544,1438.8278388278388,97.08020480702179,29.948426423087948,
1770981355468.5093,4.065217391304348,-6.054347826086956,1.891304347826087,2.0155595451825254,-9.484141232794734,-0.476361460203471,4127.472527472527,1652.0146520146518,2.0,3.4219780219780223,292.2286448298009,-3.8625954198473282,0.564885496183206,-1.099236641221374,-0.9175412293853074,0.12593703148425786,-0.4662668665667166,1408.058608058608,97.08020480702179,29.948426423087948,
1770981355488.0403,4.054347826086956,-6.054347826086956,1.9130434782608696,2.037103530819868,-9.417115499700778,-0.473967684021544,4105.494505494506,1861.5384615384614,2.0,3.420512820512821,292.3538230884557,-3.801526717557252,-0.5954198473282443,-0.4427480916030534,-0.9145427286356821,0.0914542728635682,-0.46476761619190404,1390.4761904761904,97.08304623585474,29.948426423087948,
1770981355507.5715,4.0978260869565215,-6.032608695652174,1.891304347826087,2.0706163973668463,-9.3836026331538,-0.46199880311190905,4128.937728937729,1709.8901098901097,2.0,3.4190476190476193,292.4791086350975,-3.7709923664122136,-1.5114503816793892,0.3511450381679389,-0.9055472263868065,0.08845577211394302,-0.4737631184407796,1375.8241758241757,97.08020480702179,29.948426423087948,
1770981355527.1023,4.130434782608695,-6.021739130434782,1.9239130434782608,2.1256732495511668,-9.393177737881508,-0.4213046080191502,4128.937728937729,1668.8644688644688,2.0,3.417582417582418,292.604501607717,-3.6488549618320607,-1.9694656488549618,1.5572519083969465,-0.9070464767616192,0.10794602698650674,-0.4737631184407796,1365.5677655677655,97.07452195771296,29.948426423087948,
1770981355546.6338,4.1521739130434785,-6.054347826086956,2.0,2.154398563734291,-9.405146618791143,-0.3973668461998803,4111.355311355311,1873.9926739926739,2.0,3.416117216117216,292.73000214454214,-3.5877862595419847,-1.9236641221374045,2.564885496183206,-0.9160419790104948,0.10494752623688156,-0.4767616191904048,1349.4505494505493,97.07736338097453,29.948426423087948,
1770981355566.1648,4.173913043478261,-6.076086956521739,1.9565217391304348,2.17115499700778,-9.448234590065828,-0.4045481747456613,4130.40293040293,1720.14652014652,2.0,3.414652014652015,292.85561038403773,-3.450381679389313,-2.7938931297709924,3.16030534351145,-0.9160419790104948,0.10194902548725637,-0.472263868065967,1358.2417582417581,97.07736338097453,29.948426423087948,
1770981355585.696,4.195652173913043,-6.054347826086956,1.934782608695652,2.190305206463196,-9.445840813883901,-0.46199880311190905,4128.937728937729,1671.7948717948716,2.0,3.4131868131868135,292.9813264649066,-2.946564885496183,-3.16030534351145,3.068702290076336,-0.9145427286356821,0.10344827586206896,-0.472263868065967,1372.161172161172,97.08020480702179,29.948426423087948,
1770981355605.227,4.228260869565217,-6.065217391304348,1.9239130434782608,2.2262118491921004,-9.45541591861161,-0.4236983842010772,4128.937728937729,1657.8754578754579,2.0,3.4117216117216116,293.10715052608975,-2.9618320610687023,-2.931297709923664,3.7862595419847325,-0.9115442278860569,0.09895052473763118,-0.472263868065967,1379.4871794871794,97.08020480702179,29.948426423087948,
1770981355624.758,4.25,-6.043478260869565,1.9891304347826086,2.2381807301017353,-9.43147815679234,-0.40933572710951527,4128.937728937729,1653.4798534798533,2.0,3.410256410256411,293.2330827067669,-2.4732824427480917,-2.931297709923664,3.7251908396946565,-0.9130434782608695,0.10044977511244378,-0.472263868065967,1368.4981684981683,97.08020480702179,29.948426423087948,
1770981355644.2893,4.282608695652174,-6.054347826086956,1.9782608695652173,2.2788749251944944,-9.402752842609216,-0.3710353081986834,4127.472527472527,1650.5494505494505,2.0,3.4073260073260077,293.48527198451944,-3.068702290076336,-2.946564885496183,3.7862595419847325,-0.9145427286356821,0.10944527736131934,-0.4677661169415292,1356.0439560439559,97.07452195771296,29.948426423087948,
1770981355663.8203,4.271739130434782,-6.108695652173913,1.934782608695652,2.2692998204667862,-9.445840813883901,-0.4260921603830042,4102.5641025641025,1854.212454212454,2.0,3.4073260073260077,293.48527198451944,-3.5725190839694654,-3.1755725190839694,3.7709923664122136,-0.9085457271364318,0.10794602698650674,-0.46926536731634183,1345.054945054945,97.08020480702179,29.948426423087948,
1770981355683.3516,4.326086956521739,-6.141304347826087,1.9239130434782608,2.317175344105326,-9.543985637342908,-0.43087971274685816,4127.472527472527,1706.9597069597069,2.0,3.4043956043956047,293.73789541639763,-2.916030534351145,-3.068702290076336,3.465648854961832,-0.9040479760119939,0.12893553223388304,-0.47976011994003,1359.7069597069597,97.07736338097453,29.948426423087948,
1770981355702.8826,4.315217391304348,-6.054347826086956,1.9565217391304348,2.343506882106523,-9.47935368043088,-0.4213046080191502,4109.89010989011,1884.249084249084,2.0,3.4029304029304033,293.86437029063507,-1.8931297709923662,-3.3893129770992365,3.1908396946564883,-0.9055472263868065,0.10044977511244378,-0.46026986506746626,1422.7106227106226,97.08588766747336,29.948426423087948,
1770981355722.4136,4.326086956521739,-6.032608695652174,1.9239130434782608,2.32196289646918,-9.417115499700778,-0.4189108318372232,4130.40293040293,1723.0769230769229,2.0,3.401465201465202,293.99095412448844,-1.9083969465648853,-3.9236641221374042,2.259541984732824,-0.9070464767616192,0.10794602698650674,-0.46476761619190404,1557.5091575091574,97.08020480702179,29.948426423087948,
1770981355741.9448,4.358695652173913,-6.130434782608695,1.934782608695652,2.34590065828845,-9.46259724715739,-0.40933572710951527,4128.937728937729,1672.5274725274724,2.0,3.3985347985347985,294.24444923474886,-2.2900763358778624,-4.244274809160305,1.9694656488549618,-0.9100449775112444,0.1184407796101949,-0.47976011994003,1733.3333333333333,97.08020480702179,29.948426423087948,
1770981355761.4758,4.369565217391305,-6.239130434782608,1.9782608695652173,2.379413524835428,-9.615798922800717,-0.41651705565529623,4127.472527472527,1657.142857142857,2.0,3.3970695970695974,294.37136079361653,-2.198473282442748,-4.427480916030534,1.7251908396946565,-0.9070464767616192,0.10944527736131934,-0.4677661169415292,1910.6227106227104,97.08020480702179,29.948426423087948,
1770981355781.007,4.391304347826087,-6.326086956521739,1.9891304347826086,2.374625972471574,-9.692399760622381,-0.3949730700179533,4128.937728937729,1652.7472527472526,2.0,3.395604395604396,294.4983818770226,-1.7557251908396947,-4.778625954198473,0.8396946564885496,-0.8995502248875562,0.10044977511244378,-0.4677661169415292,2038.0952380952378,97.08020480702179,29.948426423087948,
1770981355800.538,4.4021739130434785,-6.369565217391304,1.967391304347826,2.4033512866546975,-9.75703171753441,-0.3901855176540993,4126.007326007326,1644.6886446886447,2.0,3.392673992673993,294.7527531850572,-1.3435114503816794,-4.763358778625954,0.5190839694656488,-0.9010494752623688,0.12893553223388304,-0.4737631184407796,2091.5750915750914,97.07736338097453,29.948426423087948,
1770981355820.069,4.445652173913043,-6.413043478260869,1.9891304347826086,2.4488330341113107,-9.819269898264512,-0.3734290843806104,4128.937728937729,1649.084249084249,2.0,3.391208791208791,294.8801036941024,-1.0076335877862594,-4.916030534351145,0.16793893129770993,-0.9130434782608695,0.10044977511244378,-0.4662668665667166,2063.003663003663,97.07452195771296,29.948426423087948,
1770981355839.6003,4.4021739130434785,-6.423913043478261,1.9891304347826086,2.4368641532016757,-9.850388988629563,-0.36385397965290245,4127.472527472527,1649.084249084249,2.0,3.3882783882783887,295.1351351351351,-0.12213740458015267,-4.65648854961832,-0.7633587786259541,-0.9115442278860569,0.11094452773613193,-0.4677661169415292,1982.4175824175823,97.08020480702179,29.948426423087948,
1770981355859.131,4.369565217391305,-6.380434782608695,2.0543478260869565,2.4081388390185516,-9.802513464991023,-0.31119090365050867,4108.424908424908,1861.5384615384614,2.0,3.386813186813187,295.2628163530175,0.8091603053435115,-4.519083969465648,-1.83206106870229,-0.9055472263868065,0.10494752623688156,-0.4767616191904048,1871.0622710622708,97.08020480702179,29.948426423087948,
1770981355878.6624,4.3478260869565215,-6.358695652173913,2.0869565217391304,2.355475763016158,-9.761819269898265,-0.2585278276481149,4101.098901098901,1918.6813186813185,2.0,3.3838827838827843,295.5185105001082,1.450381679389313,-3.6488549618320607,-2.427480916030534,-0.8980509745127436,0.12443778110944527,-0.48425787106446777,1749.4505494505493,97.07736338097453,29.948426423087948,
1770981355898.1936,4.326086956521739,-6.380434782608695,2.1630434782608696,2.319569120287253,-9.785757031717534,-0.2130460801915021,4127.472527472527,1726.007326007326,2.0,3.382417582417583,295.6465237166991,1.4351145038167938,-3.1908396946564883,-2.748091603053435,-0.9100449775112444,0.1184407796101949,-0.48275862068965514,1625.6410256410256,97.08588766747336,29.948426423087948,
1770981355917.7246,4.293478260869565,-6.467391304347826,2.1956521739130435,2.3052064631956912,-9.871932974266906,-0.1699581089168163,4127.472527472527,1671.7948717948716,2.0,3.3809523809523814,295.7746478873239,1.8625954198473282,-2.351145038167939,-3.236641221374046,-0.8995502248875562,0.09295352323838081,-0.46326836581709147,1517.216117216117,97.07452195771296,29.948426423087948,
1770981355937.256,4.239130434782608,-6.5,2.25,2.2357869539198085,-9.915020945541592,-0.07899461400359066,4127.472527472527,1655.6776556776556,2.0,3.3780219780219785,296.0312296681847,2.8396946564885495,-1.4198473282442747,-2.778625954198473,-0.9100449775112444,0.10794602698650674,-0.4707646176911544,1444.6886446886447,97.07736338097453,29.948426423087948,
1770981355956.7869,4.173913043478261,-6.5,2.282608695652174,2.166367444643926,-9.912627169359665,-0.038300418910831836,4106.959706959707,1868.131868131868,2.0,3.376556776556777,296.1596875678021,4.122137404580153,-0.8702290076335878,-2.259541984732824,-0.9055472263868065,0.10794602698650674,-0.47976011994003,1408.7912087912086,97.08020480702179,29.948426423087948,
1770981355976.318,4.1521739130434785,-6.489130434782608,2.3369565217391304,2.118491921005386,-9.910233393177737,0.011968880909634948,4127.472527472527,1710.6227106227104,2.0,3.373626373626373,296.41693811074924,5.450381679389313,-0.6412213740458015,-1.8778625954198473,-0.9040479760119939,0.11244377811094453,-0.4752623688155922,1408.7912087912086,97.07168053723709,29.948426423087948,
1770981355995.849,4.108695652173913,-6.478260869565217,2.380434782608696,2.106523040095751,-9.886295631358468,0.06223818073010173,4127.472527472527,1667.3992673992673,2.0,3.3721611721611717,296.5457310449707,6.458015267175572,-0.5954198473282443,-0.6717557251908397,-0.9055472263868065,0.095952023988006,-0.47976011994003,1442.4908424908424,97.07736338097453,29.948426423087948,
1770981356015.38,4.108695652173913,-6.391304347826087,2.4239130434782608,2.0706163973668463,-9.797725912627168,0.13883901855176542,4106.959706959707,1871.7948717948716,2.0,3.3706959706959703,296.67463594870685,8.061068702290076,0.015267175572519083,0.13740458015267176,-0.9070464767616192,0.09745127436281859,-0.48125937031484256,1472.5274725274724,97.07736338097453,29.948426423087948,
1770981356034.9114,4.076086956521739,-6.315217391304348,2.4891304347826084,2.0586475164572113,-9.747456612806703,0.14602034709754638,4128.937728937729,1713.5531135531135,2.0,3.367765567765568,296.93278224929304,8.99236641221374,0.6412213740458015,1.3435114503816794,-0.9055472263868065,0.10344827586206896,-0.4737631184407796,1515.018315018315,97.08020480702179,29.948426423087948,
1770981356054.4424,4.0978260869565215,-6.315217391304348,2.5217391304347827,2.0418910831837223,-9.733093955715141,0.1891083183722322,4127.472527472527,1668.131868131868,2.0,3.3663003663003654,297.06202393906426,8.931297709923664,2.0,3.114503816793893,-0.9070464767616192,0.11094452773613193,-0.48425787106446777,1549.4505494505493,97.08020480702179,29.948426423087948,
1770981356073.9734,4.076086956521739,-6.228260869565217,2.543478260869565,2.056253740275284,-9.704368641532017,0.24655894673847994,4127.472527472527,1654.9450549450548,2.0,3.364835164835165,297.19137818419335,9.954198473282442,3.618320610687023,4.122137404580153,-0.9025487256371814,0.10644677661169415,-0.4767616191904048,1561.9047619047617,97.07452195771296,29.948426423087948,
1770981356093.5046,4.076086956521739,-6.108695652173913,2.5652173913043477,2.0538599640933572,-9.560742070616397,0.2728904847396768,4127.472527472527,1652.0146520146518,2.0,3.3619047619047615,297.4504249291785,10.885496183206106,5.374045801526718,5.801526717557252,-0.9040479760119939,0.10344827586206896,-0.48875562218890556,1544.3223443223442,97.07452195771296,29.948426423087948,
1770981356113.0356,4.043478260869565,-6.032608695652174,2.5869565217391304,2.025134649910233,-9.409934171154998,0.26570915619389585,4109.89010989011,1868.131868131868,2.0,3.36043956043956,297.58011772400266,11.17557251908397,7.068702290076335,7.038167938931298,-0.9025487256371814,0.10194902548725637,-0.48125937031484256,1503.2967032967033,97.07452195771296,29.948426423087948,
