Shimmer_A679_TimestampSync_Unix_CAL,Shimmer_A679_Accel_LN_X_CAL,Shimmer_A679_Accel_LN_Y_CAL,Shimmer_A679_Accel_LN_Z_CAL,Shimmer_A679_Accel_WR_X_CAL,Shimmer_A679_Accel_WR_Y_CAL,Shimmer_A679_Accel_WR_Z_CAL,Shimmer_A679_Battery_CAL,Shimmer_A679_Ext_Exp_A15_CAL,Shimmer_A679_GSR_Range_CAL,Shimmer_A679_GSR_Skin_Conductance_CAL,Shimmer_A679_GSR_Skin_Resistance_CAL,Shimmer_A679_Gyro_X_CAL,Shimmer_A679_Gyro_Y_CAL,Shimmer_A679_Gyro_Z_CAL,Shimmer_A679_Mag_X_CAL,Shimmer_A679_Mag_Y_CAL,Shimmer_A679_Mag_Z_CAL,Shimmer_A679_PPG_A13_CAL,Shimmer_A679_Pressure_BMP280_CAL,Shimmer_A679_Temperature_BMP280_CAL,Unnamed: 21
1770983555002.557,4.33695652173913,-5.630434782608695,1.9130434782608696,2.2812687013764212,-8.947935368043089,-0.41412327947336924,4084.981684981685,1900.3663003663003,1.0,6.276882235070388,159.314762098414,12.50381679389313,-24.549618320610687,-6.641221374045801,-0.8980509745127436,0.08695652173913043,-0.46176911544227883,1017.5824175824175,97.05427086034244,30.430820875108473,
1770983555022.088,4.5978260869565215,-5.717391304347826,1.7826086956521738,2.5134649910233393,-9.06523040095751,-0.5481747456612807,4076.1904761904757,1892.3076923076922,1.0,6.27177700348432,159.44444444444446,10.015267175572518,-27.725190839694655,-5.557251908396946,-0.8950524737631184,0.08995502248875561,-0.4677661169415292,1035.8974358974358,97.05995796072362,30.430820875108473,
1770983555041.6191,4.706521739130435,-5.771739130434782,1.641304347826087,2.7073608617594256,-9.117893476959903,-0.6798324356672651,4084.981684981685,1898.9010989010987,1.0,6.2666717718982525,159.57433808553972,8.213740458015266,-26.595419847328245,-3.2061068702290076,-0.896551724137931,0.07646176911544228,-0.472263868065967,1054.212454212454,97.05427086034244,30.430820875108473,
1770983555061.15,4.663043478260869,-5.782608695652174,1.5869565217391304,2.7097546379413524,-9.144225014961101,-0.7971274685816876,4084.981684981685,1901.098901098901,1.0,6.2615665403121845,159.70444353852426,6.305343511450381,-23.63358778625954,-0.41221374045801523,-0.8995502248875562,0.0704647676161919,-0.4737631184407796,1081.3186813186812,97.04858377112083,30.430820875108473,
1770983555080.6814,4.695652173913043,-5.739130434782608,1.576086956521739,2.748055056852184,-9.101137043686416,-0.8306403351286654,4077.655677655677,1898.9010989010987,1.0,6.2615665403121845,159.70444353852426,4.198473282442748,-20.916030534351144,0.3511450381679389,-0.8980509745127436,0.06446776611694152,-0.47826086956521735,1163.3699633699632,97.04858377112083,30.430820875108473,
1770983555100.2124,4.771739130434782,-5.641304347826087,1.6739130434782608,2.836624775583483,-9.036505086774387,-0.7947336923997605,4083.5164835164833,1905.4945054945053,1.0,6.2564613087261165,159.83476132190944,1.2366412213740459,-17.877862595419845,0.22900763358778625,-0.889055472263868,0.07796101949025487,-0.4752623688155922,1333.3333333333333,97.05142731433668,30.430820875108473,
1770983555119.7434,4.760869565217392,-5.608695652173913,1.7826086956521738,2.824655894673848,-8.96229802513465,-0.6152004787552364,4065.9340659340655,1884.9816849816848,1.0,6.2564613087261165,159.83476132190944,-2.0763358778625953,-12.961832061068701,-0.015267175572519083,-0.8980509745127436,0.07346326836581708,-0.4707646176911544,1578.021978021978,97.04858377112083,30.430820875108473,
1770983555139.275,4.793478260869565,-5.521739130434782,1.967391304347826,2.83901855176541,-8.868940754039498,-0.471573907839617,4084.981684981685,1897.4358974358972,1.0,6.251356077140049,159.96529195590037,-6.2748091603053435,-8.183206106870228,-1.2671755725190839,-0.8920539730134932,0.06296851574212893,-0.46476761619190404,1835.8974358974358,97.05427086034244,30.430820875108473,
1770983555158.8057,4.869565217391305,-5.478260869565217,2.0543478260869565,2.9299820466786355,-8.809096349491321,-0.3040095751047277,4083.5164835164833,1905.4945054945053,1.0,6.2462508455539805,160.09603596240296,-10.946564885496183,-1.8778625954198473,-1.984732824427481,-0.8905547226386806,0.0944527736131934,-0.472263868065967,2048.3516483516482,97.05142731433668,30.430820875108473,
1770983555178.337,4.869565217391305,-5.445652173913043,1.8804347826086956,2.9228007181328546,-8.768402154398563,-0.44763614602034707,4076.1904761904757,1893.7728937728937,1.0,6.2462508455539805,160.09603596240296,-13.526717557251908,2.8244274809160306,-3.1908396946564883,-0.8935532233883058,0.07196401799100449,-0.45277361319340326,2169.230769230769,97.05142731433668,30.430820875108473,
1770983555197.868,4.760869565217392,-5.413043478260869,1.891304347826087,2.81508078994614,-8.727707959305805,-0.47875523638539796,4083.5164835164833,1904.7619047619046,1.0,6.241145613967913,160.2269938650307,-15.923664122137405,6.442748091603053,-3.9083969465648853,-0.889055472263868,0.06896551724137931,-0.46176911544227883,2178.7545787545787,97.05427086034244,30.430820875108473,
1770983555217.399,4.75,-5.684782608695652,2.0217391304347827,2.81508078994614,-8.991023339317774,-0.34230999401555956,4083.5164835164833,1907.6923076923076,1.0,6.236040382381846,160.35816618911176,-18.015267175572518,9.48091603053435,-3.0229007633587783,-0.8920539730134932,0.08245877061469264,-0.4767616191904048,2085.714285714286,97.05995796072362,30.430820875108473,
1770983555236.9302,4.771739130434782,-5.945652173913043,2.119565217391304,2.817474566128067,-9.316576900059845,-0.22740873728306402,4083.5164835164833,1908.4249084249084,1.0,6.230935150795777,160.48955346169603,-20.580152671755723,9.404580152671755,-1.5267175572519083,-0.8920539730134932,0.06746626686656672,-0.45727136431784104,1923.8095238095236,97.05711440913808,30.430820875108473,
1770983555256.4612,4.75,-6.0,2.2717391304347827,2.798324356672651,-9.374027528426092,-0.047875523638539794,4076.1904761904757,1894.5054945054944,1.0,6.230935150795777,160.48955346169603,-19.00763358778626,9.389312977099236,-1.2366412213740459,-0.8950524737631184,0.07646176911544228,-0.4662668665667166,1723.0769230769229,97.05427086034244,30.430820875108473,
1770983555275.9922,4.760869565217392,-6.0978260869565215,2.369565217391304,2.805505685218432,-9.402752842609216,-0.011968880909634948,4067.399267399267,1876.1904761904761,1.0,6.225829919209709,160.62115621156212,-19.69465648854962,9.419847328244275,-1.450381679389313,-0.8920539730134932,0.07196401799100449,-0.45577211394302847,1513.5531135531135,97.05427086034244,30.430820875108473,
1770983555295.5234,4.771739130434782,-6.304347826086956,2.391304347826087,2.822262118491921,-9.618192698982645,0.06463195691202872,4083.5164835164833,1898.9010989010987,1.0,6.220724687623642,160.75297496922445,-20.381679389312975,8.50381679389313,-2.519083969465649,-0.8920539730134932,0.05997001499250375,-0.45577211394302847,1325.2747252747251,97.0428966930588,30.430820875108473,
1770983555315.0544,4.75,-6.543478260869565,2.4347826086956523,2.781567923399162,-9.879114302812686,0.08138839018551765,4082.0512820512818,1899.6336996336995,1.0,6.220724687623642,160.75297496922445,-21.358778625954198,7.557251908396946,-4.473282442748092,-0.8935532233883058,0.05847076461769115,-0.46026986506746626,1169.230769230769,97.04574023069488,30.430820875108473,
1770983555334.5857,4.760869565217392,-6.815217391304348,2.5869565217391304,2.800718132854578,-10.15439856373429,0.1603830041891083,4074.7252747252746,1891.5750915750914,1.0,6.220724687623642,160.75297496922445,-21.541984732824428,8.076335877862595,-6.519083969465648,-0.896551724137931,0.05997001499250375,-0.45727136431784104,1073.260073260073,97.05427086034244,30.430820875108473,
1770983555354.1167,4.891304347826087,-6.967391304347826,2.7717391304347827,2.9036505086774387,-10.391382405745063,0.3973668461998803,4082.0512820512818,1897.4358974358972,1.0,6.215619456037573,160.88501026694047,-20.62595419847328,10.839694656488549,-8.778625954198473,-0.8950524737631184,0.08395802098950525,-0.45577211394302847,1059.3406593406592,97.05427086034244,30.430820875108473,
1770983555373.6477,4.858695652173913,-7.108695652173913,2.934782608695652,2.982645122681029,-10.578096947935368,0.5577498503889886,4083.5164835164833,1905.4945054945053,1.0,6.210514224451506,161.01726263871765,-21.0381679389313,15.068702290076335,-10.885496183206106,-0.896551724137931,0.0704647676161919,-0.4587706146926537,1101.098901098901,97.05427086034244,30.430820875108473,
1770983555393.179,4.6521739130434785,-7.054347826086956,3.010869565217391,2.7767803710353083,-10.625972471573908,0.7372830640335128,4082.0512820512818,1901.8315018315018,1.0,6.210514224451506,161.01726263871765,-19.96946564885496,20.381679389312975,-12.885496183206106,-0.9010494752623688,0.0704647676161919,-0.4482758620689655,1172.8937728937728,97.05142731433668,30.430820875108473,
1770983555412.71,4.5,-6.880434782608695,2.9782608695652173,2.566128067025733,-10.458408138839019,0.7707959305804907,4083.5164835164833,1906.9597069597069,1.0,6.205408992865438,161.14973262032086,-18.213740458015266,24.702290076335878,-15.32824427480916,-0.9025487256371814,0.05697151424287856,-0.4467766116941529,1243.956043956044,97.04858377112083,30.430820875108473,
1770983555432.2412,4.369565217391305,-6.554347826086956,2.902173913043478,2.4225014961101135,-10.144823459006583,0.7324955116696589,4058.6080586080584,1870.3296703296703,1.0,6.205408992865438,161.14973262032086,-15.740458015267174,28.580152671755723,-17.786259541984734,-0.9085457271364318,0.06446776611694152,-0.4587706146926537,1303.2967032967033,97.05427086034244,30.430820875108473,
1770983555451.7722,4.206521739130435,-6.173913043478261,2.880434782608696,2.2549371633752244,-9.745062836624776,0.6535008976660682,4083.5164835164833,1904.7619047619046,1.0,6.200303761279371,161.28242074927954,-11.587786259541984,30.931297709923662,-19.374045801526716,-0.8935532233883058,0.07646176911544228,-0.46476761619190404,1331.8681318681317,97.05142731433668,30.430820875108473,
1770983555471.3032,4.08695652173913,-5.956521739130435,2.760869565217391,2.118491921005386,-9.397965290245361,0.5816876122082585,4083.5164835164833,1906.9597069597069,1.0,6.200303761279371,161.28242074927954,-8.259541984732824,31.00763358778626,-19.877862595419845,-0.9130434782608695,0.06896551724137931,-0.46326836581709147,1322.3443223443223,97.05427086034244,30.430820875108473,
1770983555490.8345,3.8478260869565215,-5.815217391304348,2.641304347826087,1.8791143028126869,-9.218432076600838,0.4021543985637343,4074.7252747252746,1893.7728937728937,1.0,6.200303761279371,161.28242074927954,-4.961832061068702,26.9618320610687,-19.541984732824428,-0.9145427286356821,0.06446776611694152,-0.46026986506746626,1292.3076923076922,97.05427086034244,30.430820875108473,
1770983555510.3655,3.717391304347826,-5.717391304347826,2.467391304347826,1.668461998803112,-9.098743267504489,0.2561340514661879,4083.5164835164833,1904.7619047619046,1.0,6.195198529693303,161.41532756489494,-0.9770992366412213,20.106870229007633,-17.679389312977097,-0.9115442278860569,0.0704647676161919,-0.46476761619190404,1236.6300366300366,97.05142731433668,30.430820875108473,
1770983555529.8967,3.8043478260869565,-5.565217391304348,2.467391304347826,1.7163375224416517,-8.935966487133452,0.19868342309994014,4083.5164835164833,1907.6923076923076,1.0,6.195198529693303,161.41532756489494,3.969465648854962,10.305343511450381,-15.709923664122137,-0.9175412293853074,0.06146926536731634,-0.4512743628185907,1167.032967032967,97.05427086034244,30.430820875108473,
1770983555549.4275,4.141304347826087,-5.510869565217392,2.4782608695652173,2.0299222022740873,-8.8426092160383,0.1891083183722322,4082.0512820512818,1902.5641025641025,1.0,6.195198529693303,161.41532756489494,6.99236641221374,1.8625954198473282,-13.755725190839694,-0.9070464767616192,0.04947526236881559,-0.46026986506746626,1106.9597069597069,97.05711440913808,30.430820875108473,
1770983555568.9587,4.369565217391305,-5.543478260869565,2.5,2.336325553560742,-8.856971873129861,0.2106523040095751,4083.5164835164833,1906.9597069597069,1.0,6.195198529693303,161.41532756489494,8.946564885496183,-5.190839694656488,-9.557251908396946,-0.9115442278860569,0.05697151424287856,-0.4542728635682159,1049.084249084249,97.05427086034244,30.430820875108473,
1770983555588.49,4.423913043478261,-5.58695652173913,2.4239130434782608,2.4368641532016757,-8.933572710951525,0.12926391382405744,4073.260073260073,1887.179487179487,1.0,6.195198529693303,161.41532756489494,9.572519083969466,-10.549618320610687,-4.305343511450381,-0.9145427286356821,0.07196401799100449,-0.46176911544227883,1002.1978021978022,97.05347536609082,30.425795919075608,
1770983555608.021,4.532608695652174,-5.641304347826087,2.391304347826087,2.532615200478755,-8.974266906044285,0.10771992818671454,4083.5164835164833,1902.5641025641025,1.0,6.195198529693303,161.41532756489494,9.145038167938932,-14.274809160305344,0.7022900763358778,-0.9115442278860569,0.05997001499250375,-0.4587706146926537,972.1611721611721,97.05347536609082,30.425795919075608,
1770983555627.5522,4.576086956521739,-5.728260869565217,2.3260869565217392,2.5924596050269297,-9.062836624775583,0.0,4083.5164835164833,1906.9597069597069,1.0,6.190093298107235,161.54845360824743,7.1603053435114505,-17.389312977099237,4.809160305343512,-0.9145427286356821,0.05997001499250375,-0.45277361319340326,959.7069597069597,97.05916242021217,30.425795919075608,
1770983555647.0833,4.543478260869565,-5.695652173913043,2.2282608695652173,2.554159186116098,-9.081986834231,-0.10053859964093358,4076.1904761904757,1894.5054945054944,1.0,6.190093298107235,161.54845360824743,4.748091603053435,-17.358778625954198,8.48854961832061,-0.9115442278860569,0.06746626686656672,-0.46176911544227883,956.7765567765567,97.05063184321492,30.425795919075608,
1770983555666.6145,4.641304347826087,-5.75,2.1739130434782608,2.7049670855774983,-9.108318372232196,-0.15798922800718132,4057.142857142857,1865.9340659340658,1.0,6.190093298107235,161.54845360824743,2.1526717557251906,-16.15267175572519,12.580152671755725,-0.9025487256371814,0.05847076461769115,-0.46176911544227883,964.1025641025641,97.05063184321492,30.425795919075608,
1770983555686.1455,4.804347826086956,-5.804347826086956,2.1739130434782608,2.779174147217235,-9.127468581687612,-0.17713943746259725,4084.981684981685,1891.5750915750914,1.0,6.190093298107235,161.54845360824743,-1.8931297709923662,-13.32824427480916,14.442748091603052,-0.9025487256371814,0.07796101949025487,-0.4707646176911544,983.1501831501831,97.05347536609082,30.425795919075608,
1770983555705.6765,4.8478260869565215,-5.826086956521739,2.130434782608696,2.8821065230400955,-9.16816277678037,-0.17713943746259725,4079.1208791208787,1890.8424908424906,1.0,6.190093298107235,161.54845360824743,-4.198473282442748,-8.854961832061068,16.15267175572519,-0.896551724137931,0.07346326836581708,-0.4707646176911544,1016.117216117216,97.05347536609082,30.425795919075608,
1770983555725.2075,4.858695652173913,-5.880434782608695,2.0760869565217392,2.9251944943147814,-9.22561340514662,-0.24895272292040693,4076.1904761904757,1889.3772893772893,1.0,6.190093298107235,161.54845360824743,-6.641221374045801,-4.33587786259542,17.358778625954198,-0.9010494752623688,0.06446776611694152,-0.46476761619190404,1043.956043956044,97.04778832312886,30.425795919075608,
1770983555744.7388,4.869565217391305,-5.858695652173913,1.9782608695652173,2.9419509275882705,-9.239976062238181,-0.3255535607420706,4058.6080586080584,1865.9340659340658,1.0,6.190093298107235,161.54845360824743,-7.129770992366412,4.1679389312977095,16.946564885496183,-0.9070464767616192,0.06896551724137931,-0.4497751124437781,1081.3186813186812,97.05063184321492,30.425795919075608,
1770983555764.2698,4.880434782608695,-5.793478260869565,1.9565217391304348,2.9730700179533214,-9.196888090963494,-0.3973668461998803,4083.5164835164833,1896.7032967032965,1.0,6.190093298107235,161.54845360824743,-6.137404580152672,7.923664122137405,15.603053435114504,-0.896551724137931,0.07346326836581708,-0.45727136431784104,1178.7545787545787,97.04778832312886,30.425795919075608,
1770983555783.801,4.815217391304348,-5.771739130434782,2.0217391304347827,2.9251944943147814,-9.165769000598443,-0.34470377019748655,4084.981684981685,1900.3663003663003,1.0,6.190093298107235,161.54845360824743,-5.251908396946565,8.732824427480915,14.381679389312977,-0.9010494752623688,0.06146926536731634,-0.4512743628185907,1355.3113553113553,97.05063184321492,30.425795919075608,
1770983555803.332,4.75,-5.804347826086956,2.010869565217391,2.848593656493118,-9.158587672052663,-0.34230999401555956,4073.260073260073,1884.9816849816848,1.0,6.195198529693303,161.41532756489494,-4.702290076335878,6.946564885496183,12.50381679389313,-0.9025487256371814,0.08995502248875561,-0.4737631184407796,1583.8827838827838,97.05063184321492,30.425795919075608,
1770983555822.863,4.739130434782608,-5.945652173913043,1.9456521739130435,2.817474566128067,-9.268701376421305,-0.3686415320167564,4055.6776556776554,1857.142857142857,1.0,6.195198529693303,161.41532756489494,-4.687022900763359,3.6946564885496183,10.412213740458014,-0.8920539730134932,0.07646176911544228,-0.4737631184407796,1796.3369963369962,97.05063184321492,30.425795919075608,
1770983555842.3943,4.75,-6.119565217391304,1.858695652173913,2.7767803710353083,-9.464991023339318,-0.46918013165769,4083.5164835164833,1894.5054945054944,1.0,6.195198529693303,161.41532756489494,-3.7862595419847325,-0.5038167938931297,8.458015267175572,-0.8995502248875562,0.07196401799100449,-0.4662668665667166,1942.124542124542,97.05347536609082,30.425795919075608,
1770983555861.9253,4.804347826086956,-6.33695652173913,1.858695652173913,2.810293237582286,-9.682824655894674,-0.5290245362058648,4082.0512820512818,1898.168498168498,1.0,6.195198529693303,161.41532756489494,-4.137404580152672,-4.534351145038168,6.671755725190839,-0.8950524737631184,0.08095952023988005,-0.46326836581709147,1991.2087912087911,97.05916242021217,30.425795919075608,
1770983555881.4563,4.8478260869565215,-6.554347826086956,1.8369565217391304,2.8749251944943146,-9.960502692998205,-0.5194494314781568,4076.1904761904757,1891.5750915750914,1.0,6.195198529693303,161.41532756489494,-5.251908396946565,-8.412213740458014,5.374045801526718,-0.8980509745127436,0.06896551724137931,-0.4662668665667166,1954.5787545787543,97.05063184321492,30.425795919075608,
1770983555900.9875,4.858695652173913,-6.782608695652174,1.7282608695652173,2.9299820466786355,-10.238180730101735,-0.6223818073010173,4058.6080586080584,1865.9340659340658,1.0,6.200303761279371,161.28242074927954,-5.190839694656488,-10.335877862595419,3.3893129770992365,-0.8935532233883058,0.0944527736131934,-0.46176911544227883,1858.6080586080584,97.05347536609082,30.425795919075608,
1770983555920.5186,4.880434782608695,-6.717391304347826,1.7065217391304348,2.9371633752244164,-10.240574506283663,-0.696588868940754,4083.5164835164833,1896.7032967032965,1.0,6.195198529693303,161.41532756489494,-3.8625954198473282,-9.755725190839694,0.8091603053435115,-0.8950524737631184,0.05997001499250375,-0.4542728635682159,1726.007326007326,97.05631889175658,30.425795919075608,
1770983555940.0498,4.945652173913043,-6.434782608695652,1.826086956521739,2.994614003590664,-9.958108916816277,-0.6104129263913823,4083.5164835164833,1904.7619047619046,1.0,6.200303761279371,161.28242074927954,-4.198473282442748,-5.847328244274809,-1.9236641221374045,-0.8995502248875562,0.06596701649175413,-0.46026986506746626,1567.7655677655678,97.05063184321492,30.425795919075608,
1770983555959.5808,4.978260869565217,-6.228260869565217,1.9565217391304348,3.0281268701376423,-9.67803710353082,-0.45242369838420105,4071.7948717948716,1891.5750915750914,1.0,6.195198529693303,161.41532756489494,-6.7328244274809155,-0.16793893129770993,-4.137404580152672,-0.8920539730134932,0.07196401799100449,-0.46176911544227883,1406.5934065934066,97.05347536609082,30.425795919075608,
1770983555979.112,4.923913043478261,-6.0978260869565215,2.032608695652174,3.0281268701376423,-9.512866546977857,-0.3231597845601436,4055.6776556776554,1858.6080586080584,1.0,6.200303761279371,161.28242074927954,-8.870229007633588,6.3206106870229,-6.625954198473282,-0.8980509745127436,0.07496251874062969,-0.4662668665667166,1246.153846153846,97.05631889175658,30.425795919075608,
1770983555998.643,4.793478260869565,-5.967391304347826,2.0978260869565215,2.9012567324955114,-9.37642130460802,-0.26570915619389585,4083.5164835164833,1894.5054945054944,1.0,6.200303761279371,161.28242074927954,-10.229007633587786,12.549618320610687,-7.9541984732824424,-0.896551724137931,0.06896551724137931,-0.4482758620689655,1112.8205128205127,97.05063184321492,30.425795919075608,
1770983556018.174,4.630434782608695,-5.858695652173913,2.1739130434782608,2.6953919808497906,-9.261520047875523,-0.1843207660083782,4082.0512820512818,1898.168498168498,1.0,6.200303761279371,161.28242074927954,-10.99236641221374,17.053435114503817,-9.725190839694656,-0.8995502248875562,0.09295352323838081,-0.4587706146926537,1023.4432234432234,97.05347536609082,30.425795919075608,
1770983556037.705,4.467391304347826,-5.83695652173913,2.217391304347826,2.5182525433871934,-9.201675643327349,-0.10053859964093358,4076.1904761904757,1890.8424908424906,1.0,6.205408992865438,161.14973262032086,-10.961832061068701,18.62595419847328,-10.381679389312977,-0.8950524737631184,0.05847076461769115,-0.46476761619190404,980.2197802197802,97.05347536609082,30.425795919075608,
1770983556057.2363,4.4021739130434785,-5.858695652173913,2.2391304347826084,2.4153201675643325,-9.223219628964692,-0.07420706163973669,4076.1904761904757,1890.1098901098899,1.0,6.205408992865438,161.14973262032086,-9.908396946564885,18.091603053435115,-10.702290076335878,-0.9025487256371814,0.05697151424287856,-0.4542728635682159,985.3479853479853,97.04778832312886,30.425795919075608,
1770983556076.7676,4.326086956521739,-5.858695652173913,2.2065217391304346,2.3530819868342308,-9.251944943147816,-0.0933572710951526,4083.5164835164833,1904.0293040293038,1.0,6.205408992865438,161.14973262032086,-8.122137404580153,15.190839694656487,-10.67175572519084,-0.8980509745127436,0.06146926536731634,-0.44377811094452774,1008.058608058608,97.04778832312886,30.425795919075608,
1770983556096.2986,4.293478260869565,-5.880434782608695,2.2391304347826084,2.283662477558348,-9.249551166965889,-0.08856971873129862,4082.0512820512818,1901.098901098901,1.0,6.205408992865438,161.14973262032086,-6.305343511450381,11.526717557251908,-9.923664122137405,-0.8995502248875562,0.06596701649175413,-0.46476761619190404,1031.5018315018315,97.05063184321492,30.425795919075608,
1770983556115.8296,4.260869565217392,-5.934782608695652,2.2391304347826084,2.2669060442848594,-9.295032914422501,-0.0933572710951526,4071.7948717948716,1890.8424908424906,1.0,6.205408992865438,161.14973262032086,-4.519083969465648,6.427480916030534,-8.580152671755725,-0.9115442278860569,0.06596701649175413,-0.46176911544227883,1067.3992673992673,97.05063184321492,30.425795919075608,
1770983556135.3608,4.228260869565217,-6.021739130434782,2.1956521739130435,2.2118491921005385,-9.381208856971872,-0.09096349491322561,4055.6776556776554,1858.6080586080584,1.0,6.210514224451506,161.01726263871765,-2.8854961832061066,1.3740458015267174,-8.030534351145038,-0.9085457271364318,0.07796101949025487,-0.46476761619190404,1105.4945054945053,97.05347536609082,30.425795919075608,
1770983556154.8918,4.228260869565217,-6.010869565217392,2.152173913043478,2.2238180730101735,-9.402752842609216,-0.13165769000598443,4083.5164835164833,1894.5054945054944,1.0,6.210514224451506,161.01726263871765,-1.0076335877862594,-2.610687022900763,-7.206106870229007,-0.9100449775112444,0.07346326836581708,-0.4587706146926537,1130.4029304029302,97.05063184321492,30.425795919075608,
1770983556174.4229,4.326086956521739,-5.934782608695652,2.119565217391304,2.2908438061041294,-9.32854578096948,-0.1867145421903052,4083.5164835164833,1904.7619047619046,1.0,6.210514224451506,161.01726263871765,-0.8549618320610687,-4.473282442748092,-6.106870229007633,-0.9085457271364318,0.08095952023988005,-0.46026986506746626,1144.3223443223442,97.05063184321492,30.425795919075608,
1770983556193.954,4.423913043478261,-5.9021739130434785,2.0978260869565215,2.39377618192699,-9.304608019150209,-0.234590065828845,4084.981684981685,1902.5641025641025,1.0,6.215619456037573,160.88501026694047,-1.3435114503816794,-4.152671755725191,-5.297709923664122,-0.8980509745127436,0.05697151424287856,-0.4542728635682159,1146.5201465201465,97.04778832312886,30.425795919075608,
1770983556213.485,4.478260869565217,-5.9021739130434785,2.0760869565217392,2.4799521244763616,-9.275882704967085,-0.2537402752842609,4079.1208791208787,1893.7728937728937,1.0,6.215619456037573,160.88501026694047,-2.213740458015267,-1.8015267175572518,-4.015267175572519,-0.9055472263868065,0.06596701649175413,-0.4587706146926537,1138.4615384615383,97.05347536609082,30.425795919075608,
1770983556233.0164,4.489130434782608,-5.869565217391304,2.0543478260869565,2.5134649910233393,-9.2327947336924,-0.27767803710353084,4084.981684981685,1898.9010989010987,1.0,6.215619456037573,160.88501026694047,-3.2061068702290076,2.045801526717557,-2.6259541984732824,-0.9040479760119939,0.06446776611694152,-0.45277361319340326,1126.007326007326,97.05063184321492,30.425795919075608,
1770983556252.5474,4.456521739130435,-5.8478260869565215,2.043478260869565,2.5062836624775584,-9.228007181328545,-0.29443447037701975,4084.981684981685,1901.098901098901,1.0,6.220724687623642,160.75297496922445,-4.809160305343512,6.2748091603053435,-1.3893129770992365,-0.9010494752623688,0.07196401799100449,-0.46176911544227883,1109.89010989011,97.05347536609082,30.425795919075608,
1770983556272.0784,4.456521739130435,-5.815217391304348,2.032608695652174,2.4655894673847993,-9.18491921005386,-0.31358467983243565,4071.7948717948716,1890.8424908424906,1.0,6.220724687623642,160.75297496922445,-5.893129770992366,9.770992366412214,0.0916030534351145,-0.8995502248875562,0.08845577211394302,-0.4662668665667166,1096.7032967032967,97.05631889175658,30.425795919075608,
1770983556291.6096,4.467391304347826,-5.717391304347826,2.0,2.4847396768402152,-9.132256134051467,-0.34709754637941354,4084.981684981685,1898.9010989010987,1.0,6.220724687623642,160.75297496922445,-6.641221374045801,12.106870229007633,2.045801526717557,-0.9055472263868065,0.06296851574212893,-0.46026986506746626,1082.051282051282,97.05063184321492,30.425795919075608,
1770983556311.1406,4.467391304347826,-5.619565217391304,1.9565217391304348,2.4967085577498502,-8.993417115499701,-0.3542788749251945,4084.981684981685,1901.098901098901,1.0,6.220724687623642,160.75297496922445,-7.374045801526718,13.603053435114504,3.66412213740458,-0.9085457271364318,0.05847076461769115,-0.4482758620689655,1065.2014652014652,97.05063184321492,30.425795919075608,
1770983556330.672,4.423913043478261,-5.619565217391304,2.0869565217391304,2.4608019150209457,-8.92160383004189,-0.29204069419509276,4083.5164835164833,1906.9597069597069,1.0,6.220724687623642,160.75297496922445,-8.961832061068701,14.259541984732824,6.015267175572519,-0.9010494752623688,0.05847076461769115,-0.4512743628185907,1042.4908424908424,97.05347536609082,30.425795919075608,
1770983556350.203,4.4021739130434785,-5.956521739130435,2.2391304347826084,2.4344703770197484,-9.230400957510472,-0.09096349491322561,4074.7252747252746,1893.7728937728937,1.0,6.225829919209709,160.62115621156212,-12.65648854961832,12.458015267175572,7.572519083969465,-0.9025487256371814,0.0704647676161919,-0.4707646176911544,1031.5018315018315,97.05631889175658,30.425795919075608,
1770983556369.734,4.413043478260869,-6.3478260869565215,2.119565217391304,2.4225014961101135,-9.70915619389587,-0.1843207660083782,4060.07326007326,1873.260073260073,1.0,6.225829919209709,160.62115621156212,-12.580152671755725,8.16793893129771,8.213740458015266,-0.9025487256371814,0.07196401799100449,-0.472263868065967,1035.8974358974358,97.05631889175658,30.425795919075608,
1770983556389.2651,4.4021739130434785,-6.282608695652174,1.9565217391304348,2.4344703770197484,-9.752244165170556,-0.3518850987432675,4083.5164835164833,1898.168498168498,1.0,6.225829919209709,160.62115621156212,-9.450381679389313,3.618320610687023,7.7251908396946565,-0.9025487256371814,0.06296851574212893,-0.45727136431784104,1032.967032967033,97.05063184321492,30.425795919075608,
1770983556408.796,4.423913043478261,-6.108695652173913,1.9456521739130435,2.4440454817474566,-9.539198084979054,-0.40933572710951527,4084.981684981685,1900.3663003663003,1.0,6.225829919209709,160.62115621156212,-7.557251908396946,-0.32061068702290074,6.488549618320611,-0.8995502248875562,0.06446776611694152,-0.45727136431784104,1031.5018315018315,97.05347536609082,30.425795919075608,
1770983556428.3274,4.456521739130435,-6.010869565217392,2.0543478260869565,2.4655894673847993,-9.381208856971872,-0.3399162178336326,4070.32967032967,1884.249084249084,1.0,6.225829919209709,160.62115621156212,-8.091603053435113,-2.259541984732824,5.450381679389313,-0.896551724137931,0.08545727136431784,-0.472263868065967,1079.120879120879,97.05063184321492,30.425795919075608,
1770983556447.8584,4.554347826086956,-6.108695652173913,2.0978260869565215,2.582884500299222,-9.488928785158587,-0.24177139437462597,4084.981684981685,1890.8424908424906,1.0,6.230935150795777,160.48955346169603,-9.419847328244275,-2.015267175572519,4.305343511450381,-0.9040479760119939,0.05697151424287856,-0.45727136431784104,1189.7435897435896,97.05063184321492,30.425795919075608,
1770983556467.3894,4.619565217391305,-6.119565217391304,2.1630434782608696,2.657091561938959,-9.524835427887492,-0.17713943746259725,4084.981684981685,1898.9010989010987,1.0,6.236040382381846,160.35816618911176,-9.053435114503817,0.15267175572519084,2.687022900763359,-0.896551724137931,0.06596701649175413,-0.4497751124437781,1358.974358974359,97.04778832312886,30.425795919075608,
1770983556486.921,4.58695652173913,-6.010869565217392,2.217391304347826,2.6594853381208856,-9.3836026331538,-0.13405146618791142,4082.0512820512818,1899.6336996336995,1.0,6.236040382381846,160.35816618911176,-8.931297709923664,3.480916030534351,0.6412213740458015,-0.9070464767616192,0.0704647676161919,-0.45727136431784104,1576.5567765567764,97.05347536609082,30.425795919075608,
1770983556506.4517,4.554347826086956,-5.923913043478261,2.293478260869565,2.580490724117295,-9.309395571514063,-0.03590664272890485,4084.981684981685,1901.098901098901,1.0,6.236040382381846,160.35816618911176,-9.969465648854962,5.847328244274809,-0.2748091603053435,-0.896551724137931,0.08095952023988005,-0.45277361319340326,1783.150183150183,97.05063184321492,30.425795919075608,
1770983556525.983,4.489130434782608,-5.9021739130434785,2.3043478260869565,2.561340514661879,-9.290245362058647,-0.026331538001196888,4060.07326007326,1874.7252747252746,1.0,6.236040382381846,160.35816618911176,-10.473282442748092,6.366412213740458,-0.2748091603053435,-0.9010494752623688,0.06296851574212893,-0.4512743628185907,1923.0769230769229,97.05347536609082,30.425795919075608,
1770983556545.514,4.5,-5.880434782608695,2.293478260869565,2.5302214242968284,-9.268701376421305,0.019150209455415918,4084.981684981685,1893.7728937728937,1.0,6.236040382381846,160.35816618911176,-9.908396946564885,5.893129770992366,-0.732824427480916,-0.9070464767616192,0.08545727136431784,-0.46176911544227883,1960.4395604395604,97.05916242021217,30.425795919075608,
1770983556565.045,4.445652173913043,-5.869565217391304,2.293478260869565,2.4871334530221425,-9.249551166965889,-0.02154398563734291,4082.0512820512818,1898.168498168498,1.0,6.236040382381846,160.35816618911176,-9.16030534351145,5.343511450381679,-0.33587786259541985,-0.8905547226386806,0.08095952023988005,-0.4542728635682159,1909.1575091575091,97.05347536609082,30.425795919075608,
1770983556584.5762,4.456521739130435,-5.891304347826087,2.3043478260869565,2.4847396768402152,-9.259126271693596,-0.02154398563734291,4068.8644688644686,1882.7838827838827,1.0,6.236040382381846,160.35816618911176,-8.854961832061068,4.702290076335878,-0.12213740458015267,-0.9070464767616192,0.06446776611694152,-0.4497751124437781,1783.8827838827838,97.05267987442296,30.42077096333378,
1770983556604.1072,4.5,-5.9021739130434785,2.3478260869565215,2.523040095751047,-9.266307600239378,0.00718132854578097,4055.6776556776554,1856.4102564102564,1.0,6.230935150795777,160.48955346169603,-7.679389312977099,4.244274809160305,0.22900763358778625,-0.9055472263868065,0.05697151424287856,-0.45277361319340326,1611.7216117216117,97.05267987442296,30.42077096333378,
1770983556623.6384,4.5,-5.989130434782608,2.3369565217391304,2.542190305206463,-9.342908438061041,0.047875523638539794,4083.5164835164833,1893.7728937728937,1.0,6.230935150795777,160.48955346169603,-6.977099236641221,3.679389312977099,0.5038167938931297,-0.8980509745127436,0.06896551724137931,-0.4467766116941529,1435.164835164835,97.04983637467686,30.42077096333378,
1770983556643.1694,4.521739130434782,-6.054347826086956,2.293478260869565,2.527827648114901,-9.421903052064632,0.0023937761819269898,4080.5860805860802,1896.7032967032965,1.0,6.236040382381846,160.35816618911176,-6.3969465648854955,3.0381679389312977,1.114503816793893,-0.9070464767616192,0.07196401799100449,-0.4587706146926537,1268.8644688644688,97.04699287772057,30.42077096333378,
1770983556662.7004,4.554347826086956,-6.195652173913043,2.293478260869565,2.556552962298025,-9.546379413524836,-0.03590664272890485,4083.5164835164833,1905.4945054945053,1.0,6.230935150795777,160.48955346169603,-5.374045801526718,2.6717557251908395,0.366412213740458,-0.8995502248875562,0.06296851574212893,-0.4482758620689655,1126.7399267399267,97.05267987442296,30.42077096333378,
1770983556682.2317,4.565217391304348,-6.293478260869565,2.293478260869565,2.597247157390784,-9.687612208258528,-0.02154398563734291,4080.5860805860802,1900.3663003663003,1.0,6.230935150795777,160.48955346169603,-4.900763358778626,2.2748091603053435,0.9618320610687022,-0.9040479760119939,0.047976011994003,-0.4482758620689655,1032.967032967033,97.05267987442296,30.42077096333378,
1770983556701.7627,4.619565217391305,-6.4021739130434785,2.2717391304347827,2.6116098144823456,-9.795332136445243,-0.04308797127468582,4055.6776556776554,1860.8058608058607,1.0,6.236040382381846,160.35816618911176,-4.870229007633587,2.4427480916030535,0.9465648854961831,-0.9025487256371814,0.07946026986506746,-0.46476761619190404,977.2893772893772,97.05267987442296,30.42077096333378,
1770983556721.2937,4.608695652173913,-6.489130434782608,2.2282608695652173,2.618791143028127,-9.9245960502693,-0.06941950927588271,4083.5164835164833,1895.2380952380952,1.0,6.230935150795777,160.48955346169603,-3.9847328244274807,2.6259541984732824,0.38167938931297707,-0.9010494752623688,0.06596701649175413,-0.4467766116941529,969.2307692307692,97.05267987442296,30.42077096333378,
1770983556740.825,4.532608695652174,-6.489130434782608,2.1847826086956523,2.573309395571514,-9.941352483542788,-0.12926391382405744,4067.399267399267,1876.1904761904761,1.0,6.230935150795777,160.48955346169603,-2.3206106870229006,2.687022900763359,-0.6870229007633587,-0.896551724137931,0.06446776611694152,-0.46326836581709147,1004.3956043956043,97.05267987442296,30.42077096333378,
1770983556760.356,4.445652173913043,-6.326086956521739,2.1739130434782608,2.4895272292040693,-9.826451226810294,-0.18192698982645122,4055.6776556776554,1854.212454212454,1.0,6.230935150795777,160.48955346169603,-0.8244274809160305,2.8396946564885495,-2.6717557251908395,-0.896551724137931,0.08095952023988005,-0.46026986506746626,1062.2710622710622,97.05836688228457,30.42077096333378,
1770983556779.8872,4.358695652173913,-6.1521739130434785,2.1847826086956523,2.39377618192699,-9.599042489527228,-0.12687013764213045,4083.5164835164833,1893.040293040293,1.0,6.230935150795777,160.48955346169603,0.13740458015267176,2.16793893129771,-4.8396946564885495,-0.9010494752623688,0.08545727136431784,-0.4497751124437781,1120.14652014652,97.05552337695885,30.42077096333378,
1770983556799.4182,4.326086956521739,-6.032608695652174,2.1630434782608696,2.336325553560742,-9.441053261520048,-0.16517055655296228,4082.0512820512818,1898.168498168498,1.0,6.225829919209709,160.62115621156212,0.5954198473282443,0.0,-6.778625954198473,-0.9040479760119939,0.06596701649175413,-0.4587706146926537,1183.8827838827838,97.05267987442296,30.42077096333378,
1770983556818.9492,4.315217391304348,-5.978260869565217,2.119565217391304,2.357869539198085,-9.362058647516458,-0.1843207660083782,4083.5164835164833,1906.227106227106,1.0,6.230935150795777,160.48955346169603,0.7175572519083969,-1.8015267175572518,-8.198473282442748,-0.8950524737631184,0.05847076461769115,-0.46326836581709147,1231.5018315018315,97.05836688228457,30.42077096333378,
1770983556838.4805,4.315217391304348,-5.869565217391304,2.0978260869565215,2.324356672651107,-9.249551166965889,-0.23219628964691802,4060.07326007326,1876.1904761904761,1.0,6.225829919209709,160.62115621156212,1.129770992366412,-3.16030534351145,-8.99236641221374,-0.9100449775112444,0.05997001499250375,-0.46326836581709147,1232.967032967033,97.05552337695885,30.42077096333378,
1770983556858.0117,4.304347826086956,-5.793478260869565,2.119565217391304,2.2932375822860562,-9.17773788150808,-0.22022740873728305,4084.981684981685,1893.7728937728937,1.0,6.225829919209709,160.62115621156212,1.297709923664122,-3.6946564885496183,-9.48091603053435,-0.8995502248875562,0.07496251874062969,-0.46926536731634183,1200.7326007326008,97.05552337695885,30.42077096333378,
1770983556877.5427,4.271739130434782,-5.8478260869565215,2.043478260869565,2.2980251346499103,-9.220825852782765,-0.29682824655894674,4083.5164835164833,1904.7619047619046,1.0,6.225829919209709,160.62115621156212,0.8396946564885496,-3.7557251908396947,-8.076335877862595,-0.9040479760119939,0.07196401799100449,-0.4467766116941529,1164.8351648351647,97.04699287772057,30.42077096333378,
1770983556897.0735,4.282608695652174,-5.869565217391304,1.9891304347826086,2.283662477558348,-9.244763614602034,-0.3518850987432675,4067.399267399267,1879.120879120879,1.0,6.225829919209709,160.62115621156212,0.9770992366412213,-3.7709923664122136,-6.091603053435114,-0.9115442278860569,0.07196401799100449,-0.4587706146926537,1134.065934065934,97.05267987442296,30.42077096333378,
1770983556916.6047,4.282608695652174,-5.793478260869565,2.032608695652174,2.295631358467983,-9.16098144823459,-0.3494913225613405,4084.981684981685,1895.2380952380952,1.0,6.220724687623642,160.75297496922445,0.564885496183206,-3.068702290076336,-4.076335877862595,-0.9055472263868065,0.07496251874062969,-0.4542728635682159,1106.227106227106,97.04699287772057,30.42077096333378,
1770983556936.136,4.326086956521739,-5.804347826086956,2.0217391304347827,2.295631358467983,-9.132256134051467,-0.33034111310592457,4084.981684981685,1899.6336996336995,1.0,6.220724687623642,160.75297496922445,-0.3969465648854962,-3.114503816793893,-1.7251908396946565,-0.9085457271364318,0.05697151424287856,-0.46326836581709147,1082.051282051282,97.04699287772057,30.42077096333378,
1770983556955.667,4.4021739130434785,-5.8478260869565215,2.032608695652174,2.3722321962896467,-9.204069419509276,-0.3279473369239976,4083.5164835164833,1906.227106227106,1.0,6.220724687623642,160.75297496922445,-2.015267175572519,-2.1068702290076335,0.9312977099236641,-0.9085457271364318,0.05697151424287856,-0.4542728635682159,1067.3992673992673,97.05267987442296,30.42077096333378,
1770983556975.1982,4.445652173913043,-5.923913043478261,1.9891304347826086,2.4464392579293834,-9.271095152603232,-0.33034111310592457,4070.32967032967,1886.4468864468863,1.0,6.215619456037573,160.88501026694047,-3.7709923664122136,-1.1450381679389312,3.068702290076336,-0.9025487256371814,0.05547226386806597,-0.472263868065967,1065.2014652014652,97.05267987442296,30.42077096333378,
1770983556994.7292,4.467391304347826,-5.891304347826087,2.0,2.4727707959305802,-9.295032914422501,-0.34709754637941354,4083.5164835164833,1902.5641025641025,1.0,6.215619456037573,160.88501026694047,-4.244274809160305,1.450381679389313,4.6106870229007635,-0.9025487256371814,0.07796101949025487,-0.4752623688155922,1069.5970695970695,97.04699287772057,30.42077096333378,
1770983557014.2605,4.478260869565217,-5.913043478260869,2.0,2.491921005385996,-9.271095152603232,-0.38539796529024534,4084.981684981685,1901.8315018315018,1.0,6.215619456037573,160.88501026694047,-5.557251908396946,3.236641221374046,5.206106870229007,-0.9010494752623688,0.0704647676161919,-0.4587706146926537,1076.1904761904761,97.05267987442296,30.42077096333378,
1770983557033.7915,4.489130434782608,-5.989130434782608,2.0217391304347827,2.5254338719329743,-9.345302214242968,-0.34230999401555956,4084.981684981685,1901.8315018315018,1.0,6.215619456037573,160.88501026694047,-6.793893129770992,5.114503816793893,5.801526717557252,-0.9070464767616192,0.06896551724137931,-0.45277361319340326,1082.7838827838827,97.04699287772057,30.42077096333378,
1770983557053.3225,4.5,-5.967391304347826,2.0652173913043477,2.5182525433871934,-9.385996409335727,-0.2704967085577498,4065.9340659340655,1882.7838827838827,1.0,6.210514224451506,161.01726263871765,-7.099236641221374,6.519083969465648,6.549618320610687,-0.8950524737631184,0.05547226386806597,-0.4662668665667166,1082.7838827838827,97.04699287772057,30.42077096333378,
1770983557072.8538,4.489130434782608,-5.967391304347826,2.0978260869565215,2.515858767205266,-9.347695990424896,-0.24416517055655296,4086.4468864468863,1902.5641025641025,1.0,6.205408992865438,161.14973262032086,-7.129770992366412,7.206106870229007,6.152671755725191,-0.8995502248875562,0.05997001499250375,-0.46176911544227883,1088.6446886446886,97.05267987442296,30.42077096333378,
1770983557092.3848,4.467391304347826,-5.956521739130435,2.0760869565217392,2.4847396768402152,-9.364452423698385,-0.2848593656493118,4084.981684981685,1902.5641025641025,1.0,6.205408992865438,161.14973262032086,-7.587786259541985,6.534351145038167,5.9541984732824424,-0.9040479760119939,0.05847076461769115,-0.45727136431784104,1109.1575091575091,97.05267987442296,30.42077096333378,
1770983557111.9158,4.510869565217392,-5.989130434782608,2.0869565217391304,2.523040095751047,-9.378815080789947,-0.26570915619389585,4083.5164835164833,1906.9597069597069,1.0,6.205408992865438,161.14973262032086,-7.206106870229007,5.709923664122138,5.221374045801526,-0.9025487256371814,0.06296851574212893,-0.46176911544227883,1142.1245421245421,97.04414938355407,30.42077096333378,
1770983557131.447,4.532608695652174,-6.032608695652174,2.0760869565217392,2.578096947935368,-9.409934171154998,-0.2513464991023339,4084.981684981685,1903.296703296703,1.0,6.205408992865438,161.14973262032086,-7.221374045801526,5.221374045801526,4.854961832061068,-0.896551724137931,0.06746626686656672,-0.4497751124437781,1211.7216117216117,97.04699287772057,30.42077096333378,
1770983557150.978,4.576086956521739,-6.021739130434782,2.108695652173913,2.609216038300419,-9.445840813883901,-0.20825852782764812,4083.5164835164833,1906.9597069597069,1.0,6.200303761279371,161.28242074927954,-6.7328244274809155,4.549618320610687,4.458015267175572,-0.9055472263868065,0.07646176911544228,-0.46176911544227883,1345.054945054945,97.04414938355407,30.42077096333378,
1770983557170.509,4.608695652173913,-6.032608695652174,2.130434782608696,2.6475164572112506,-9.42429682824656,-0.22262118491921004,4084.981684981685,1903.296703296703,1.0,6.200303761279371,161.28242074927954,-6.7328244274809155,4.854961832061068,3.847328244274809,-0.8995502248875562,0.0704647676161919,-0.4497751124437781,1532.6007326007325,97.04983637467686,30.42077096333378,
1770983557190.0403,4.619565217391305,-6.010869565217392,2.141304347826087,2.6714542190305206,-9.433871932974267,-0.20586475164572113,4083.5164835164833,1907.6923076923076,1.0,6.200303761279371,161.28242074927954,-6.519083969465648,5.267175572519084,2.213740458015267,-0.8980509745127436,0.05697151424287856,-0.45577211394302847,1725.2747252747251,97.04983637467686,30.42077096333378,
1770983557209.5713,4.630434782608695,-6.021739130434782,2.1847826086956523,2.657091561938959,-9.402752842609216,-0.17474566128067026,4065.9340659340655,1884.9816849816848,1.0,6.195198529693303,161.41532756489494,-6.900763358778626,5.786259541984733,1.083969465648855,-0.896551724137931,0.07946026986506746,-0.46026986506746626,1864.4688644688642,97.05552337695885,30.42077096333378,
1770983557229.1023,4.608695652173913,-6.076086956521739,2.1956521739130435,2.645122681029324,-9.445840813883901,-0.11968880909634949,4057.142857142857,1863.003663003663,1.0,6.195198529693303,161.41532756489494,-7.32824427480916,6.1679389312977095,-0.42748091603053434,-0.8995502248875562,0.07646176911544228,-0.46476761619190404,1919.4139194139193,97.05267987442296,30.42077096333378,
1770983557248.6335,4.543478260869565,-6.130434782608695,2.119565217391304,2.585278276481149,-9.570317175344105,-0.17474566128067026,4083.5164835164833,1895.970695970696,1.0,6.195198529693303,161.41532756489494,-7.3893129770992365,5.6183206106870225,-2.5343511450381677,-0.9010494752623688,0.07346326836581708,-0.46326836581709147,1884.9816849816848,97.05267987442296,30.42077096333378,
1770983557268.1646,4.478260869565217,-6.141304347826087,2.0978260869565215,2.527827648114901,-9.567923399162177,-0.2513464991023339,4083.5164835164833,1904.7619047619046,1.0,6.190093298107235,161.54845360824743,-6.213740458015267,4.549618320610687,-4.549618320610687,-0.8995502248875562,0.07646176911544228,-0.45727136431784104,1772.161172161172,97.04983637467686,30.42077096333378,
1770983557287.6958,4.478260869565217,-6.065217391304348,2.141304347826087,2.4967085577498502,-9.460203470975463,-0.20347097546379414,4067.399267399267,1878.3882783882782,1.0,6.184988066521168,161.68179942220388,-4.045801526717557,3.8931297709923665,-6.366412213740458,-0.9010494752623688,0.08095952023988005,-0.46476761619190404,1602.9304029304028,97.05267987442296,30.42077096333378,
1770983557307.2268,4.456521739130435,-6.076086956521739,2.141304347826087,2.491921005385996,-9.474566128067025,-0.1627767803710353,4083.5164835164833,1900.3663003663003,1.0,6.184988066521168,161.68179942220388,-3.5877862595419847,2.7938931297709924,-7.7251908396946565,-0.9010494752623688,0.05697151424287856,-0.4542728635682159,1432.2344322344322,97.04983637467686,30.42077096333378,
1770983557326.758,4.413043478260869,-6.1521739130434785,2.119565217391304,2.4464392579293834,-9.553560742070616,-0.21543985637342908,4055.6776556776554,1860.8058608058607,1.0,6.1798828349351,161.81536555142503,-3.679389312977099,1.648854961832061,-8.67175572519084,-0.9040479760119939,0.08395802098950525,-0.45727136431784104,1275.4578754578754,97.05552337695885,30.42077096333378,
1770983557346.289,4.4021739130434785,-6.163043478260869,2.0869565217391304,2.4368641532016757,-9.572710951526032,-0.22262118491921004,4083.5164835164833,1895.2380952380952,1.0,6.174777603349032,161.9491525423729,-3.312977099236641,1.1908396946564885,-9.49618320610687,-0.896551724137931,0.06896551724137931,-0.46926536731634183,1152.3809523809523,97.05267987442296,30.42077096333378,
1770983557365.82,4.391304347826087,-6.108695652173913,2.108695652173913,2.3889886295631357,-9.553560742070616,-0.24416517055655296,4063.003663003663,1873.9926739926739,1.0,6.1798828349351,161.81536555142503,-3.2519083969465647,1.129770992366412,-10.167938931297709,-0.896551724137931,0.06896551724137931,-0.4662668665667166,1071.7948717948718,97.04983637467686,30.42077096333378,
1770983557385.3513,4.380434782608695,-6.054347826086956,2.0978260869565215,2.3842010771992816,-9.464991023339318,-0.23219628964691802,4083.5164835164833,1898.9010989010987,1.0,6.174777603349032,161.9491525423729,-2.9618320610687023,1.129770992366412,-10.213740458015266,-0.9025487256371814,0.07196401799100449,-0.4542728635682159,1024.9084249084249,97.04699287772057,30.42077096333378,
1770983557404.8823,4.33695652173913,-6.054347826086956,2.0760869565217392,2.355475763016158,-9.453022142429683,-0.23937761819269898,4083.5164835164833,1905.4945054945053,1.0,6.169672371762964,162.08316094331818,-3.801526717557252,1.7251908396946565,-9.969465648854962,-0.9040479760119939,0.05847076461769115,-0.46176911544227883,1011.7216117216117,97.05267987442296,30.42077096333378,
1770983557424.4136,4.293478260869565,-6.010869565217392,2.0869565217391304,2.331538001196888,-9.419509275882705,-0.2537402752842609,4082.0512820512818,1901.8315018315018,1.0,6.164567140176896,162.21739130434784,-3.3893129770992365,1.8778625954198473,-9.740458015267174,-0.9040479760119939,0.06296851574212893,-0.46176911544227883,1041.7582417582416,97.04983637467686,30.42077096333378,
1770983557443.9446,4.260869565217392,-6.0,2.108695652173913,2.2908438061041294,-9.395571514063436,-0.24655894673847994,4064.468864468864,1883.5164835164833,1.0,6.164567140176896,162.21739130434784,-3.5114503816793894,2.2748091603053435,-9.49618320610687,-0.9010494752623688,0.08245877061469264,-0.4707646176911544,1105.4945054945053,97.04983637467686,30.42077096333378,
1770983557463.4756,4.260869565217392,-5.956521739130435,2.119565217391304,2.252543387193297,-9.345302214242968,-0.234590065828845,4061.5384615384614,1865.201465201465,1.0,6.164567140176896,162.21739130434784,-2.9770992366412212,2.7022900763358777,-8.320610687022901,-0.9040479760119939,0.05397301349325337,-0.45577211394302847,1170.6959706959706,97.05267987442296,30.42077096333378,
1770983557483.0068,4.25,-5.956521739130435,2.0760869565217392,2.2549371633752244,-9.326152004787552,-0.24655894673847994,4055.6776556776554,1851.2820512820513,1.0,6.159461908590828,162.35184417737258,-3.312977099236641,2.4427480916030535,-7.603053435114504,-0.9010494752623688,0.050974512743628186,-0.45577211394302847,1224.1758241758241,97.05267987442296,30.42077096333378,
1770983557502.5378,4.206521739130435,-5.989130434782608,2.119565217391304,2.2262118491921004,-9.350089766606821,-0.236983842010772,4083.5164835164833,1892.3076923076922,1.0,6.15435667700476,162.4865201161344,-3.5725190839694654,2.5343511450381677,-6.595419847328244,-0.9100449775112444,0.07346326836581708,-0.46326836581709147,1248.3516483516482,97.05267987442296,30.42077096333378,
1770983557522.069,4.239130434782608,-6.010869565217392,2.0978260869565215,2.2286056253740276,-9.40754039497307,-0.2561340514661879,4063.003663003663,1872.5274725274724,1.0,6.15435667700476,162.4865201161344,-3.969465648854962,1.816793893129771,-5.755725190839694,-0.9070464767616192,0.06146926536731634,-0.4662668665667166,1243.2234432234432,97.04983637467686,30.42077096333378,
1770983557541.6,4.228260869565217,-6.010869565217392,2.0652173913043477,2.2309994015559544,-9.409934171154998,-0.2561340514661879,4057.142857142857,1860.07326007326,1.0,6.15435667700476,162.4865201161344,-3.6946564885496183,1.0381679389312977,-4.458015267175572,-0.9145427286356821,0.05997001499250375,-0.46176911544227883,1227.8388278388277,97.05552337695885,30.42077096333378,
1770983557561.131,4.260869565217392,-6.043478260869565,2.0869565217391304,2.2429682824655894,-9.42429682824656,-0.2704967085577498,4084.981684981685,1890.1098901098899,1.0,6.15435667700476,162.4865201161344,-3.6488549618320607,0.8244274809160305,-3.7557251908396947,-0.9085457271364318,0.06296851574212893,-0.46326836581709147,1204.3956043956043,97.05552337695885,30.42077096333378,
1770983557580.6624,4.260869565217392,-6.065217391304348,2.108695652173913,2.2597247157390785,-9.445840813883901,-0.2561340514661879,4082.0512820512818,1897.4358974358972,1.0,6.149251445418693,162.6214196762142,-3.847328244274809,0.183206106870229,-2.8091603053435112,-0.8995502248875562,0.08245877061469264,-0.46176911544227883,1193.4065934065934,97.05552337695885,30.42077096333378,
1770983557600.1934,4.260869565217392,-6.076086956521739,2.0978260869565215,2.2740873728306403,-9.464991023339318,-0.2537402752842609,4083.5164835164833,1905.4945054945053,1.0,6.1441462138326255,162.75654341503946,-3.618320610687023,-0.32061068702290074,-2.183206106870229,-0.9085457271364318,0.047976011994003,-0.45727136431784104,1186.080586080586,97.05552337695885,30.42077096333378,
1770983557619.7244,4.25,-6.076086956521739,2.043478260869565,2.276481149012567,-9.460203470975463,-0.2752842609216038,4063.003663003663,1876.923076923077,1.0,6.139040982246557,162.8918918918919,-3.709923664122137,-0.564885496183206,-1.9236641221374045,-0.9115442278860569,0.05547226386806597,-0.4587706146926537,1173.6263736263736,97.05836688228457,30.42077096333378,
1770983557639.2556,4.282608695652174,-6.076086956521739,2.0978260869565215,2.2788749251944944,-9.453022142429683,-0.23937761819269898,4057.142857142857,1860.8058608058607,1.0,6.133935750660489,163.02746566791512,-3.9389312977099236,-0.916030534351145,-1.648854961832061,-0.9100449775112444,0.07196401799100449,-0.4497751124437781,1153.113553113553,97.05552337695885,30.42077096333378,
1770983557658.7866,4.293478260869565,-6.076086956521739,2.108695652173913,2.2860562537402753,-9.474566128067025,-0.22022740873728305,4083.5164835164833,1895.2380952380952,1.0,6.133935750660489,163.02746566791512,-4.122137404580153,-1.0229007633587786,-1.0687022900763359,-0.9070464767616192,0.06146926536731634,-0.45577211394302847,1138.4615384615383,97.05267987442296,30.42077096333378,
1770983557678.318,4.271739130434782,-6.021739130434782,2.0869565217391304,2.276481149012567,-9.438659485338121,-0.236983842010772,4064.468864468864,1874.7252747252746,1.0,6.1288305190744214,163.16326530612244,-4.076335877862595,-1.1908396946564885,-0.8091603053435115,-0.9070464767616192,0.06596701649175413,-0.46026986506746626,1131.135531135531,97.05267987442296,30.42077096333378,
1770983557697.8489,4.260869565217392,-5.989130434782608,2.0760869565217392,2.2716935966487135,-9.374027528426092,-0.2704967085577498,4084.981684981685,1893.7728937728937,1.0,6.123725287488353,163.29929137140476,-3.3740458015267176,-1.5267175572519083,-0.5343511450381679,-0.9100449775112444,0.06146926536731634,-0.45577211394302847,1127.4725274725274,97.05552337695885,30.42077096333378,
1770983557717.38,4.304347826086956,-6.010869565217392,2.130434782608696,2.300418910831837,-9.40754039497307,-0.24177139437462597,4084.981684981685,1899.6336996336995,1.0,6.123725287488353,163.29929137140476,-3.7709923664122136,-2.4732824427480917,0.24427480916030533,-0.9070464767616192,0.05997001499250375,-0.4707646176911544,1128.937728937729,97.05552337695885,30.42077096333378,
1770983557736.9111,4.369565217391305,-6.010869565217392,2.141304347826087,2.355475763016158,-9.393177737881508,-0.19868342309994014,4083.5164835164833,1906.227106227106,1.0,6.123725287488353,163.29929137140476,-4.366412213740458,-2.916030534351145,0.6717557251908397,-0.9070464767616192,0.06296851574212893,-0.4587706146926537,1130.4029304029302,97.05267987442296,30.42077096333378,
1770983557756.442,4.358695652173913,-6.010869565217392,2.108695652173913,2.381807301017355,-9.395571514063436,-0.17474566128067026,4084.981684981685,1903.296703296703,1.0,6.118620055902285,163.4355444305382,-4.458015267175572,-3.099236641221374,1.2213740458015268,-0.8950524737631184,0.06596701649175413,-0.45277361319340326,1136.9963369963368,97.05267987442296,30.42077096333378,
1770983557775.9734,4.358695652173913,-6.043478260869565,2.0760869565217392,2.3650508677438657,-9.405146618791143,-0.22740873728306402,4084.981684981685,1901.8315018315018,1.0,6.113514824316218,163.57202505219206,-4.67175572519084,-2.6564885496183206,2.045801526717557,-0.9085457271364318,0.05847076461769115,-0.4512743628185907,1142.857142857143,97.04699287772057,30.42077096333378,
1770983557795.5044,4.369565217391305,-6.032608695652174,2.0978260869565215,2.3842010771992816,-9.429084380610412,-0.2537402752842609,4084.981684981685,1901.8315018315018,1.0,6.113514824316218,163.57202505219206,-4.061068702290076,-2.16793893129771,2.3053435114503817,-0.9130434782608695,0.0704647676161919,-0.4662668665667166,1161.904761904762,97.05267987442296,30.42077096333378,
1770983557815.0354,4.413043478260869,-6.032608695652174,2.119565217391304,2.410532615200479,-9.43147815679234,-0.21543985637342908,4083.5164835164833,1906.9597069597069,1.0,6.10840959273015,163.7087338069369,-4.061068702290076,-2.4885496183206106,2.687022900763359,-0.9040479760119939,0.08245877061469264,-0.46476761619190404,1240.2930402930401,97.05836688228457,30.42077096333378,
1770983557834.567,4.423913043478261,-5.978260869565217,2.141304347826087,2.4440454817474566,-9.405146618791143,-0.19868342309994014,4063.003663003663,1877.6556776556774,1.0,6.10840959273015,163.7087338069369,-3.9541984732824424,-2.4122137404580153,3.145038167938931,-0.9055472263868065,0.08395802098950525,-0.4587706146926537,1389.0109890109889,97.05552337695885,30.42077096333378,
1770983557854.0977,4.434782608695652,-5.945652173913043,2.141304347826087,2.4703770197486534,-9.326152004787552,-0.19389587073608616,4084.981684981685,1895.2380952380952,1.0,6.103304361144083,163.8456712672522,-3.541984732824427,-2.259541984732824,3.5267175572519083,-0.8995502248875562,0.06896551724137931,-0.472263868065967,1593.4065934065934,97.05836688228457,30.42077096333378,
1770983557873.629,4.478260869565217,-5.956521739130435,2.119565217391304,2.503889886295631,-9.333333333333334,-0.1867145421903052,4084.981684981685,1899.6336996336995,1.0,6.098199129558015,163.98283800753453,-4.152671755725191,-2.213740458015267,3.679389312977099,-0.9055472263868065,0.06596701649175413,-0.46176911544227883,1802.9304029304028,97.05267987442296,30.42077096333378,
1770983557893.16,4.5,-6.010869565217392,2.119565217391304,2.527827648114901,-9.400359066427288,-0.24416517055655296,4082.0512820512818,1900.3663003663003,1.0,6.098199129558015,163.98283800753453,-4.977099236641221,-1.4198473282442747,3.49618320610687,-0.9010494752623688,0.07496251874062969,-0.4707646176911544,1961.172161172161,97.05552337695885,30.42077096333378,
1770983557912.691,4.521739130434782,-5.967391304347826,2.108695652173913,2.551765409934171,-9.37642130460802,-0.2106523040095751,4084.981684981685,1901.098901098901,1.0,6.098199129558015,163.98283800753453,-4.290076335877862,-1.1450381679389312,3.480916030534351,-0.9010494752623688,0.08845577211394302,-0.4737631184407796,2021.9780219780218,97.05836688228457,30.42077096333378,
1770983557932.2222,4.521739130434782,-5.989130434782608,2.108695652173913,2.5493716337522443,-9.352483542788748,-0.24177139437462597,4067.399267399267,1877.6556776556774,1.0,6.093093897971947,164.12023460410558,-4.290076335877862,-0.5343511450381679,2.946564885496183,-0.9070464767616192,0.08245877061469264,-0.46176911544227883,1966.3003663003662,97.04983637467686,30.42077096333378,
1770983557951.7532,4.554347826086956,-6.032608695652174,2.0869565217391304,2.542190305206463,-9.43147815679234,-0.24416517055655296,4055.6776556776554,1854.9450549450548,1.0,6.087988666385879,164.25786163522014,-4.687022900763359,-0.33587786259541985,2.8244274809160306,-0.8980509745127436,0.08845577211394302,-0.45727136431784104,1816.117216117216,97.05267987442296,30.42077096333378,
1770983557971.2844,4.565217391304348,-6.032608695652174,2.108695652173913,2.6044284859365647,-9.445840813883901,-0.21543985637342908,4083.5164835164833,1893.040293040293,1.0,6.082883434799811,164.39571968107427,-4.6106870229007635,0.24427480916030533,2.748091603053435,-0.9040479760119939,0.05847076461769115,-0.472263868065967,1624.1758241758241,97.05836688228457,30.42077096333378,
1770983557990.8154,4.554347826086956,-6.021739130434782,2.152173913043478,2.594853381208857,-9.421903052064632,-0.19868342309994014,4063.003663003663,1873.260073260073,1.0,6.082883434799811,164.39571968107427,-4.8396946564885495,0.8549618320610687,2.229007633587786,-0.9025487256371814,0.0704647676161919,-0.4497751124437781,1438.8278388278388,97.05267987442296,30.42077096333378,
1770983558010.3464,4.521739130434782,-6.032608695652174,2.119565217391304,2.573309395571514,-9.417115499700778,-0.17953321364452424,4057.142857142857,1860.07326007326,1.0,6.077778203213743,164.53380932381353,-5.312977099236641,0.6717557251908397,1.465648854961832,-0.9085457271364318,0.0704647676161919,-0.46326836581709147,1278.3882783882782,97.04983637467686,30.42077096333378,
1770983558029.8777,4.543478260869565,-6.076086956521739,2.0978260869565215,2.575703171753441,-9.453022142429683,-0.2513464991023339,4083.5164835164833,1895.2380952380952,1.0,6.077778203213743,164.53380932381353,-5.511450381679389,0.47328244274809156,0.8396946564885496,-0.9100449775112444,0.07646176911544228,-0.4677661169415292,1154.5787545787546,97.04983637467686,30.42077096333378,
1770983558049.4087,4.565217391304348,-6.043478260869565,2.119565217391304,2.5924596050269297,-9.448234590065828,-0.2513464991023339,4082.0512820512818,1898.168498168498,1.0,6.072672971627675,164.672131147541,-5.267175572519084,0.04580152671755725,0.030534351145038167,-0.9055472263868065,0.08995502248875561,-0.45727136431784104,1068.131868131868,97.05267987442296,30.42077096333378,
1770983558068.9397,4.543478260869565,-6.010869565217392,2.119565217391304,2.585278276481149,-9.40754039497307,-0.1867145421903052,4083.5164835164833,1905.4945054945053,1.0,6.067567740041608,164.81068573832562,-4.549618320610687,0.2595419847328244,-0.3969465648854962,-0.9025487256371814,0.08695652173913043,-0.4497751124437781,1032.967032967033,97.04983637467686,30.42077096333378,
1770983558088.471,4.554347826086956,-5.967391304347826,2.141304347826087,2.582884500299222,-9.36684619988031,-0.17953321364452424,4068.8644688644686,1885.7142857142856,1.0,6.067567740041608,164.81068573832562,-4.488549618320611,0.6412213740458015,-1.1755725190839694,-0.9040479760119939,0.05847076461769115,-0.45577211394302847,1036.6300366300366,97.05836688228457,30.42077096333378,
1770983558108.002,4.532608695652174,-5.989130434782608,2.1847826086956523,2.554159186116098,-9.36684619988031,-0.15559545182525433,4083.5164835164833,1901.8315018315018,1.0,6.067567740041608,164.81068573832562,-4.809160305343512,1.282442748091603,-1.8931297709923662,-0.9040479760119939,0.06896551724137931,-0.46476761619190404,1086.4468864468863,97.05267987442296,30.42077096333378,
1770983558127.5332,4.478260869565217,-6.032608695652174,2.152173913043478,2.491921005385996,-9.421903052064632,-0.18192698982645122,4082.0512820512818,1900.3663003663003,1.0,6.06246250845554,164.94947368421052,-5.32824427480916,1.66412213740458,-2.0763358778625953,-0.8995502248875562,0.06896551724137931,-0.4452773613193403,1135.5311355311355,97.04983637467686,30.42077096333378,
1770983558147.0642,4.445652173913043,-6.021739130434782,2.0978260869565215,2.4655894673847993,-9.390783961699581,-0.21543985637342908,4061.5384615384614,1869.5970695970695,1.0,6.057357276869472,165.08849557522123,-5.1603053435114505,1.66412213740458,-2.900763358778626,-0.9010494752623688,0.06896551724137931,-0.4512743628185907,1183.150183150183,97.05267987442296,30.42077096333378,
1770983558166.5952,4.456521739130435,-5.956521739130435,2.130434782608696,2.4775583482944343,-9.388390185517654,-0.22022740873728305,4057.142857142857,1858.6080586080584,1.0,6.052252045283405,165.2277520033741,-4.519083969465648,1.3435114503816794,-3.1755725190839694,-0.9130434782608695,0.08545727136431784,-0.46326836581709147,1233.6996336996335,97.05267987442296,30.42077096333378,
1770983558186.1265,4.456521739130435,-6.032608695652174,2.119565217391304,2.4608019150209457,-9.388390185517654,-0.22022740873728305,4082.0512820512818,1888.6446886446886,1.0,6.052252045283405,165.2277520033741,-5.175572519083969,1.7862595419847327,-3.236641221374046,-0.896551724137931,0.08545727136431784,-0.4752623688155922,1275.4578754578754,97.05267987442296,30.42077096333378,
1770983558205.6577,4.456521739130435,-6.054347826086956,2.0978260869565215,2.4560143626570916,-9.443447037701974,-0.23219628964691802,4082.0512820512818,1896.7032967032965,1.0,6.052252045283405,165.2277520033741,-4.687022900763359,2.213740458015267,-3.32824427480916,-0.9025487256371814,0.06596701649175413,-0.46476761619190404,1289.3772893772893,97.05267987442296,30.42077096333378,
1770983558225.1887,4.391304347826087,-6.021739130434782,2.0978260869565215,2.4368641532016757,-9.448234590065828,-0.236983842010772,4060.07326007326,1873.9926739926739,1.0,6.047146813697337,165.36724356268468,-4.931297709923664,2.610687022900763,-3.114503816793893,-0.9025487256371814,0.07646176911544228,-0.4677661169415292,1283.5164835164835,97.05552337695885,30.42077096333378,
1770983558244.7195,4.380434782608695,-6.043478260869565,2.0978260869565215,2.398563734290844,-9.43147815679234,-0.22980251346499103,4070.32967032967,1876.923076923077,1.0,6.047146813697337,165.36724356268468,-4.8396946564885495,2.7022900763358777,-3.2671755725190836,-0.8995502248875562,0.06896551724137931,-0.4737631184407796,1277.6556776556777,97.04699287772057,30.42077096333378,
1770983558264.2507,4.358695652173913,-6.032608695652174,2.0978260869565215,2.386594853381209,-9.400359066427288,-0.24655894673847994,4083.5164835164833,1899.6336996336995,1.0,6.04204158211127,165.50697084917616,-5.312977099236641,2.1526717557251906,-3.1908396946564883,-0.9070464767616192,0.0704647676161919,-0.46176911544227883,1263.7362637362637,97.05836688228457,30.42077096333378,
1770983558283.782,4.358695652173913,-6.076086956521739,2.119565217391304,2.36983842010772,-9.45541591861161,-0.24416517055655296,4082.0512820512818,1899.6336996336995,1.0,6.036936350525202,165.64693446088793,-5.419847328244274,2.3053435114503817,-3.2671755725190836,-0.9025487256371814,0.08545727136431784,-0.46026986506746626,1249.084249084249,97.04983637467686,30.42077096333378,
1770983558303.313,4.358695652173913,-6.065217391304348,2.043478260869565,2.360263315380012,-9.453022142429683,-0.2824655894673848,4061.5384615384614,1868.8644688644688,1.0,6.036936350525202,165.64693446088793,-5.068702290076335,2.6412213740458013,-3.3740458015267176,-0.9115442278860569,0.06296851574212893,-0.4482758620689655,1229.3040293040292,97.04699287772057,30.42077096333378,
1770983558322.8442,4.33695652173913,-6.0978260869565215,2.119565217391304,2.362657091561939,-9.474566128067025,-0.24895272292040693,4084.981684981685,1892.3076923076922,1.0,6.031831118939134,165.78713499788404,-5.114503816793893,2.7938931297709924,-3.068702290076336,-0.9070464767616192,0.08395802098950525,-0.46176911544227883,1205.128205128205,97.04983637467686,30.42077096333378,
1770983558342.3752,4.326086956521739,-6.141304347826087,2.108695652173913,2.3530819868342308,-9.515260323159785,-0.1867145421903052,4084.981684981685,1898.9010989010987,1.0,6.031831118939134,165.78713499788404,-5.358778625954198,3.0076335877862594,-3.0229007633587783,-0.8980509745127436,0.05847076461769115,-0.46176911544227883,1178.7545787545787,97.04983637467686,30.42077096333378,
1770983558361.9062,4.293478260869565,-6.1521739130434785,2.043478260869565,2.3099940155595453,-9.546379413524836,-0.2824655894673848,4083.5164835164833,1905.4945054945053,1.0,6.026725887353066,165.92757306226176,-5.114503816793893,2.748091603053435,-2.9923664122137406,-0.8875562218890555,0.07646176911544228,-0.46026986506746626,1160.4395604395604,97.04983637467686,30.42077096333378,
1770983558381.4375,4.25,-6.119565217391304,2.0760869565217392,2.2669060442848594,-9.546379413524836,-0.2752842609216038,4084.981684981685,1903.296703296703,1.0,6.0216206557669985,166.06824925816022,-4.961832061068702,2.5343511450381677,-3.297709923664122,-0.9025487256371814,0.06896551724137931,-0.46176911544227883,1145.054945054945,97.05267987442296,30.42077096333378,
1770983558400.9685,4.282608695652174,-6.119565217391304,2.0978260869565215,2.2405745062836626,-9.543985637342908,-0.24416517055655296,4074.7252747252746,1892.3076923076922,1.0,6.0216206557669985,166.06824925816022,-4.564885496183206,1.4961832061068703,-3.2061068702290076,-0.9010494752623688,0.06446776611694152,-0.45727136431784104,1148.7179487179487,97.05267987442296,30.42077096333378,
1770983558420.4998,4.239130434782608,-6.021739130434782,2.1630434782608696,2.264512268102932,-9.448234590065828,-0.17474566128067026,4055.6776556776554,1859.3406593406592,1.0,6.0216206557669985,166.06824925816022,-4.244274809160305,0.549618320610687,-3.0229007633587783,-0.9145427286356821,0.08395802098950525,-0.46326836581709147,1154.5787545787546,97.05267987442296,30.42077096333378,
1770983558440.0308,4.239130434782608,-6.043478260869565,2.119565217391304,2.2381807301017353,-9.400359066427288,-0.22262118491921004,4083.5164835164833,1887.179487179487,1.0,6.01651542418093,166.2091641917692,-4.427480916030534,0.030534351145038167,-2.748091603053435,-0.9040479760119939,0.08845577211394302,-0.46926536731634183,1151.6483516483515,97.05267987442296,30.42077096333378,
1770983558459.5618,4.217391304347826,-6.032608695652174,2.0543478260869565,2.2309994015559544,-9.41472172351885,-0.2704967085577498,4061.5384615384614,1865.9340659340658,1.0,6.01651542418093,166.2091641917692,-3.5267175572519083,-0.33587786259541985,-2.717557251908397,-0.9055472263868065,0.07346326836581708,-0.45727136431784104,1151.6483516483515,97.05836688228457,30.42077096333378,
1770983558479.093,4.217391304347826,-6.021739130434782,2.0652173913043477,2.2262118491921004,-9.395571514063436,-0.3040095751047277,4084.981684981685,1891.5750915750914,1.0,6.0114101925948615,166.35031847133757,-2.900763358778626,-0.8091603053435115,-2.3206106870229006,-0.9025487256371814,0.06296851574212893,-0.45277361319340326,1175.0915750915751,97.06121039040009,30.42077096333378,
1770983558498.624,4.228260869565217,-5.989130434782608,2.0652173913043477,2.2333931777378813,-9.390783961699581,-0.26092160383004187,4084.981684981685,1898.9010989010987,1.0,6.006304961008794,166.4917127071823,-2.381679389312977,-1.4809160305343512,-2.2748091603053435,-0.9010494752623688,0.05997001499250375,-0.45277361319340326,1267.3992673992673,97.04983637467686,30.42077096333378,
1770983558518.155,4.228260869565217,-6.0,2.0652173913043477,2.2286056253740276,-9.36684619988031,-0.29443447037701975,4083.5164835164833,1906.227106227106,1.0,6.006304961008794,166.4917127071823,-2.916030534351145,-2.030534351145038,-1.5267175572519083,-0.9115442278860569,0.06296851574212893,-0.4542728635682159,1427.8388278388277,97.05267987442296,30.42077096333378,
1770983558537.6863,4.239130434782608,-6.021739130434782,2.0,2.2597247157390785,-9.397965290245361,-0.31119090365050867,4084.981684981685,1902.5641025641025,1.0,6.006304961008794,166.4917127071823,-3.1755725190839694,-2.3053435114503817,-0.549618320610687,-0.9085457271364318,0.07496251874062969,-0.45727136431784104,1641.0256410256409,97.05552337695885,30.42077096333378,
1770983558557.2173,4.282608695652174,-6.010869565217392,2.0,2.288450029922202,-9.421903052064632,-0.34230999401555956,4074.7252747252746,1892.3076923076922,1.0,6.001199729422726,166.63334751169714,-3.679389312977099,-2.33587786259542,0.564885496183206,-0.9100449775112444,0.06146926536731634,-0.4752623688155922,1846.8864468864467,97.04983637467686,30.42077096333378,
1770983558576.7483,4.369565217391305,-6.032608695652174,2.0217391304347827,2.324356672651107,-9.438659485338121,-0.34230999401555956,4083.5164835164833,1904.0293040293038,1.0,6.001199729422726,166.63334751169714,-3.8625954198473282,-1.618320610687023,0.9312977099236641,-0.9010494752623688,0.05697151424287856,-0.45277361319340326,1995.6043956043954,97.04904090872274,30.41574600788299,
1770983558596.2795,4.391304347826087,-6.032608695652174,2.043478260869565,2.379413524835428,-9.443447037701974,-0.3231597845601436,4084.981684981685,1902.5641025641025,1.0,5.9960944978366575,166.77522349936143,-4.061068702290076,-0.47328244274809156,0.8549618320610687,-0.9055472263868065,0.05547226386806597,-0.46926536731634183,2054.212454212454,97.05757134694109,30.41574600788299,
1770983558615.8103,4.369565217391305,-6.054347826086956,2.0,2.3889886295631357,-9.433871932974267,-0.33034111310592457,4061.5384615384614,1869.5970695970695,1.0,5.99098926625059,166.91734128674904,-4.396946564885496,-0.183206106870229,1.5572519083969465,-0.9010494752623688,0.06296851574212893,-0.46026986506746626,2008.058608058608,97.04619743489617,30.41574600788299,
1770983558635.3418,4.423913043478261,-6.076086956521739,2.032608695652174,2.4081388390185516,-9.498503889886296,-0.33273488928785155,4057.142857142857,1858.6080586080584,1.0,5.99098926625059,166.91734128674904,-4.687022900763359,0.6717557251908397,1.5572519083969465,-0.9025487256371814,0.07496251874062969,-0.4677661169415292,1882.051282051282,97.05188438533911,30.41574600788299,
1770983558654.8728,4.434782608695652,-5.989130434782608,2.0652173913043477,2.4320766008378216,-9.426690604428485,-0.2824655894673848,4083.5164835164833,1894.5054945054944,1.0,5.99098926625059,166.91734128674904,-4.473282442748092,1.0381679389312977,1.4961832061068703,-0.9070464767616192,0.08095952023988005,-0.46176911544227883,1719.4139194139193,97.05188438533911,30.41574600788299,
1770983558674.404,4.4021739130434785,-5.978260869565217,2.119565217391304,2.429682824655895,-9.369239976062238,-0.21543985637342908,4083.5164835164833,1904.0293040293038,1.0,5.985884034664523,167.0597014925373,-5.022900763358779,1.5419847328244274,1.7557251908396947,-0.9010494752623688,0.06896551724137931,-0.45277361319340326,1539.194139194139,97.0547278647452,30.41574600788299,
1770983558693.935,4.434782608695652,-6.0,2.119565217391304,2.4488330341113107,-9.35966487133453,-0.21543985637342908,4058.6080586080584,1869.5970695970695,1.0,5.980778803078455,167.202304737516,-5.6183206106870225,1.7099236641221374,1.8625954198473282,-0.9070464767616192,0.0704647676161919,-0.4497751124437781,1360.4395604395604,97.0547278647452,30.41574600788299,
1770983558713.466,4.445652173913043,-6.0,2.0760869565217392,2.4488330341113107,-9.400359066427288,-0.24895272292040693,4076.1904761904757,1883.5164835164833,1.0,5.980778803078455,167.202304737516,-4.809160305343512,1.66412213740458,1.7251908396946565,-0.9025487256371814,0.06596701649175413,-0.45727136431784104,1198.5347985347985,97.05188438533911,30.41574600788299,
1770983558732.9973,4.434782608695652,-5.956521739130435,2.0978260869565215,2.4631956912028725,-9.393177737881508,-0.24655894673847994,4055.6776556776554,1856.4102564102564,1.0,5.980778803078455,167.202304737516,-4.091603053435114,1.099236641221374,1.3282442748091603,-0.8995502248875562,0.07646176911544228,-0.46326836581709147,1084.981684981685,97.05188438533911,30.41574600788299,
1770983558752.5283,4.489130434782608,-5.945652173913043,2.119565217391304,2.4799521244763616,-9.32854578096948,-0.20586475164572113,4083.5164835164833,1893.7728937728937,1.0,5.975673571492387,167.3451516445963,-4.290076335877862,0.7480916030534351,0.7633587786259541,-0.8980509745127436,0.06446776611694152,-0.45727136431784104,1034.4322344322343,97.05188438533911,30.41574600788299,
1770983558772.0596,4.5,-6.032608695652174,2.108695652173913,2.5086774386594852,-9.400359066427288,-0.22980251346499103,4061.5384615384614,1868.131868131868,1.0,5.975673571492387,167.3451516445963,-4.458015267175572,0.8091603053435115,0.6259541984732824,-0.9040479760119939,0.06296851574212893,-0.4512743628185907,1042.4908424908424,97.04904090872274,30.41574600788299,
1770983558791.5906,4.510869565217392,-6.076086956521739,2.0869565217391304,2.5493716337522443,-9.474566128067025,-0.24895272292040693,4057.142857142857,1858.6080586080584,1.0,5.97056833990632,167.48824283881999,-4.091603053435114,1.4198473282442747,-0.22900763358778625,-0.896551724137931,0.07646176911544228,-0.4542728635682159,1096.7032967032967,97.05188438533911,30.41574600788299,
1770983558811.1216,4.5,-6.065217391304348,2.119565217391304,2.554159186116098,-9.464991023339318,-0.2106523040095751,4083.5164835164833,1894.5054945054944,1.0,5.97056833990632,167.48824283881999,-3.3435114503816794,1.6793893129770991,-0.7480916030534351,-0.8995502248875562,0.09295352323838081,-0.4677661169415292,1175.0915750915751,97.04619743489617,30.41574600788299,
1770983558830.6528,4.5,-6.043478260869565,2.141304347826087,2.539796529024536,-9.457809694793536,-0.20107719928186715,4080.5860805860802,1897.4358974358972,1.0,5.965463108320252,167.6315789473684,-3.9389312977099236,2.1526717557251906,-1.984732824427481,-0.9040479760119939,0.08545727136431784,-0.46326836581709147,1255.6776556776556,97.0547278647452,30.41574600788299,
1770983558850.1838,4.478260869565217,-6.0978260869565215,2.119565217391304,2.511071214841412,-9.488928785158587,-0.20586475164572113,4057.142857142857,1867.3992673992673,1.0,5.965463108320252,167.6315789473684,-4.213740458015267,1.816793893129771,-3.3587786259541983,-0.8950524737631184,0.08395802098950525,-0.4677661169415292,1302.5641025641025,97.05757134694109,30.41574600788299,
1770983558869.715,4.445652173913043,-6.08695652173913,2.0978260869565215,2.4775583482944343,-9.481747456612807,-0.2513464991023339,4082.0512820512818,1890.8424908424906,1.0,5.960357876734183,167.77516059957173,-3.6488549618320607,1.816793893129771,-4.900763358778626,-0.9010494752623688,0.05697151424287856,-0.4512743628185907,1329.6703296703297,97.0547278647452,30.41574600788299,
1770983558889.246,4.456521739130435,-6.032608695652174,2.119565217391304,2.4679832435667266,-9.438659485338121,-0.22980251346499103,4055.6776556776554,1858.6080586080584,1.0,5.960357876734183,167.77516059957173,-3.099236641221374,1.7251908396946565,-5.404580152671755,-0.896551724137931,0.06896551724137931,-0.46476761619190404,1345.054945054945,97.05188438533911,30.41574600788299,
1770983558908.777,4.413043478260869,-6.010869565217392,2.141304347826087,2.4416517055655294,-9.417115499700778,-0.19389587073608616,4082.0512820512818,1887.9120879120878,1.0,5.960357876734183,167.77516059957173,-3.099236641221374,1.7862595419847327,-5.816793893129771,-0.8995502248875562,0.0704647676161919,-0.45277361319340326,1336.9963369963368,97.0547278647452,30.41574600788299,
1770983558928.3083,4.4021739130434785,-6.032608695652174,2.0978260869565215,2.4129263913824057,-9.438659485338121,-0.2513464991023339,4060.07326007326,1871.0622710622708,1.0,5.955252645148117,167.9189884269181,-3.6488549618320607,2.0,-5.7251908396946565,-0.9055472263868065,0.07796101949025487,-0.4677661169415292,1310.6227106227104,97.04904090872274,30.41574600788299,
1770983558947.8394,4.33695652173913,-6.010869565217392,2.043478260869565,2.36983842010772,-9.412327947336923,-0.2513464991023339,4057.142857142857,1859.3406593406592,1.0,5.955252645148117,167.9189884269181,-3.145038167938931,1.9541984732824427,-5.694656488549618,-0.9115442278860569,0.0944527736131934,-0.4677661169415292,1277.6556776556777,97.04619743489617,30.41574600788299,
1770983558967.3704,4.315217391304348,-5.945652173913043,2.0869565217391304,2.329144225014961,-9.333333333333334,-0.26810293237582283,4083.5164835164833,1894.5054945054944,1.0,5.950147413562048,168.06306306306305,-2.900763358778626,1.7862595419847327,-5.7251908396946565,-0.9025487256371814,0.06746626686656672,-0.46026986506746626,1254.9450549450548,97.05188438533911,30.41574600788299,
1770983558986.9016,4.3478260869565215,-5.945652173913043,2.043478260869565,2.338719329742669,-9.326152004787552,-0.2752842609216038,4082.0512820512818,1898.168498168498,1.0,5.950147413562048,168.06306306306305,-3.9847328244274807,2.3206106870229006,-5.6183206106870225,-0.9100449775112444,0.05697151424287856,-0.46326836581709147,1243.956043956044,97.0547278647452,30.41574600788299,
1770983559006.4326,4.358695652173913,-5.967391304347826,2.0543478260869565,2.36983842010772,-9.333333333333334,-0.29204069419509276,4058.6080586080584,1868.131868131868,1.0,5.945042181975981,168.20738514383854,-4.33587786259542,3.3435114503816794,-5.297709923664122,-0.896551724137931,0.07196401799100449,-0.46926536731634183,1233.6996336996335,97.05188438533911,30.41574600788299,
1770983559025.964,4.358695652173913,-5.945652173913043,2.043478260869565,2.3722321962896467,-9.330939557151407,-0.29443447037701975,4077.655677655677,1889.3772893772893,1.0,5.945042181975981,168.20738514383854,-4.6106870229007635,4.396946564885496,-4.488549618320611,-0.9085457271364318,0.06746626686656672,-0.46326836581709147,1227.106227106227,97.0547278647452,30.41574600788299,
1770983559045.4949,4.33695652173913,-5.9021739130434785,2.043478260869565,2.3650508677438657,-9.283064033512867,-0.2824655894673848,4055.6776556776554,1857.8754578754576,1.0,5.939936950389912,168.35195530726256,-5.648854961832061,5.7251908396946565,-3.480916030534351,-0.9040479760119939,0.08095952023988005,-0.4587706146926537,1224.9084249084249,97.04904090872274,30.41574600788299,
1770983559065.026,4.315217391304348,-5.967391304347826,2.0217391304347827,2.336325553560742,-9.323758228605625,-0.3494913225613405,4083.5164835164833,1894.5054945054944,1.0,5.939936950389912,168.35195530726256,-6.473282442748092,6.687022900763359,-2.564885496183206,-0.9010494752623688,0.08245877061469264,-0.4677661169415292,1226.3736263736264,97.05757134694109,30.41574600788299,
1770983559084.5571,4.33695652173913,-5.978260869565217,2.010869565217391,2.319569120287253,-9.352483542788748,-0.3494913225613405,4061.5384615384614,1867.3992673992673,1.0,5.934831718803845,168.49677419354836,-6.824427480916031,7.007633587786259,-2.091603053435114,-0.9115442278860569,0.05697151424287856,-0.46326836581709147,1221.9780219780218,97.05188438533911,30.41574600788299,
1770983559104.088,4.369565217391305,-5.945652173913043,2.0652173913043477,2.34590065828845,-9.350089766606821,-0.2992220227408737,4084.981684981685,1892.3076923076922,1.0,5.934831718803845,168.49677419354836,-6.946564885496183,7.480916030534351,-1.4198473282442747,-0.9130434782608695,0.08545727136431784,-0.46476761619190404,1219.7802197802198,97.0604148319267,30.41574600788299,
1770983559123.6194,4.391304347826087,-5.967391304347826,2.108695652173913,2.391382405745063,-9.33572710951526,-0.21543985637342908,4084.981684981685,1898.9010989010987,1.0,5.929726487217777,168.64184244511407,-8.076335877862595,7.801526717557252,-0.8549618320610687,-0.9130434782608695,0.05547226386806597,-0.4587706146926537,1225.6410256410256,97.0547278647452,30.41574600788299,
1770983559143.1504,4.4021739130434785,-6.021739130434782,2.0543478260869565,2.4129263913824057,-9.390783961699581,-0.24895272292040693,4082.0512820512818,1899.6336996336995,1.0,5.929726487217777,168.64184244511407,-8.595419847328245,8.13740458015267,-0.7938931297709924,-0.9025487256371814,0.06596701649175413,-0.45577211394302847,1233.6996336996335,97.04904090872274,30.41574600788299,
1770983559162.6814,4.434782608695652,-6.010869565217392,2.0543478260869565,2.4272890484739675,-9.419509275882705,-0.2872531418312388,4084.981684981685,1900.3663003663003,1.0,5.924621255631709,168.78716070659198,-8.50381679389313,8.99236641221374,-1.1755725190839694,-0.9145427286356821,0.07946026986506746,-0.4587706146926537,1236.6300366300366,97.05188438533911,30.41574600788299,
1770983559182.2126,4.413043478260869,-5.934782608695652,2.0978260869565215,2.4584081388390184,-9.338120885697187,-0.24416517055655296,4079.1208791208787,1893.040293040293,1.0,5.924621255631709,168.78716070659198,-8.412213740458014,9.557251908396946,-1.1450381679389312,-0.9085457271364318,0.06296851574212893,-0.45727136431784104,1276.923076923077,97.05757134694109,30.41574600788299,
1770983559201.7437,4.445652173913043,-5.945652173913043,2.152173913043478,2.4560143626570916,-9.340514661879114,-0.19628964691801315,4084.981684981685,1899.6336996336995,1.0,5.924621255631709,168.78716070659198,-8.885496183206106,9.893129770992367,-0.732824427480916,-0.9040479760119939,0.09295352323838081,-0.45727136431784104,1393.4065934065934,97.05188438533911,30.41574600788299,
1770983559221.275,4.489130434782608,-6.043478260869565,2.108695652173913,2.4655894673847993,-9.419509275882705,-0.22022740873728305,4083.5164835164833,1906.227106227106,1.0,5.919516024045641,168.9327296248383,-9.32824427480916,10.335877862595419,-0.24427480916030533,-0.9115442278860569,0.05997001499250375,-0.4587706146926537,1596.3369963369962,97.05188438533911,30.41574600788299,
1770983559240.806,4.5,-6.021739130434782,2.0760869565217392,2.5014961101137043,-9.42429682824656,-0.24416517055655296,4061.5384615384614,1871.0622710622708,1.0,5.919516024045641,168.9327296248383,-9.389312977099236,11.511450381679388,-0.732824427480916,-0.9100449775112444,0.05547226386806597,-0.45277361319340326,1833.6996336996335,97.05757134694109,30.41574600788299,
1770983559260.337,4.5,-5.989130434782608,2.130434782608696,2.5302214242968284,-9.397965290245361,-0.21543985637342908,4084.981684981685,1893.7728937728937,1.0,5.919516024045641,168.9327296248383,-9.450381679389313,12.045801526717558,-0.5190839694656488,-0.9085457271364318,0.06146926536731634,-0.46176911544227883,2036.6300366300366,97.05757134694109,30.41574600788299,
1770983559279.8682,4.5,-6.010869565217392,2.130434782608696,2.511071214841412,-9.378815080789947,-0.17235188509874327,4084.981684981685,1899.6336996336995,1.0,5.914410792459574,169.07854984894257,-9.572519083969466,12.580152671755725,-0.47328244274809156,-0.9040479760119939,0.06746626686656672,-0.46176911544227883,2144.322344322344,97.05757134694109,30.41574600788299,
1770983559299.3992,4.510869565217392,-6.032608695652174,2.119565217391304,2.535008976660682,-9.433871932974267,-0.23219628964691802,4082.0512820512818,1899.6336996336995,1.0,5.914410792459574,169.07854984894257,-9.557251908396946,13.221374045801527,-0.8549618320610687,-0.9040479760119939,0.06446776611694152,-0.46026986506746626,2135.5311355311355,97.05757134694109,30.41574600788299,
1770983559318.9304,4.510869565217392,-6.032608695652174,2.032608695652174,2.5302214242968284,-9.457809694793536,-0.27767803710353084,4083.5164835164833,1906.227106227106,1.0,5.909305560873506,169.22462203023755,-9.17557251908397,13.679389312977099,-1.3587786259541985,-0.9145427286356821,0.06746626686656672,-0.46026986506746626,2023.4432234432234,97.05757134694109,30.41574600788299,
1770983559338.4614,4.5,-6.0,2.119565217391304,2.5374027528426093,-9.388390185517654,-0.22262118491921004,4080.5860805860802,1901.098901098901,1.0,5.909305560873506,169.22462203023755,-8.625954198473282,13.938931297709923,-2.0763358778625953,-0.9100449775112444,0.050974512743628186,-0.46326836581709147,1857.142857142857,97.05188438533911,30.41574600788299,
1770983559357.9924,4.510869565217392,-5.978260869565217,2.130434782608696,2.523040095751047,-9.35966487133453,-0.2130460801915021,4083.5164835164833,1906.227106227106,1.0,5.904200329287438,169.37094682230867,-9.068702290076336,14.244274809160304,-2.8854961832061066,-0.9130434782608695,0.0704647676161919,-0.4542728635682159,1676.923076923077,97.0547278647452,30.41574600788299,
1770983559377.5237,4.510869565217392,-5.978260869565217,2.119565217391304,2.523040095751047,-9.3836026331538,-0.23219628964691802,4084.981684981685,1902.5641025641025,1.0,5.904200329287438,169.37094682230867,-9.129770992366412,14.50381679389313,-3.0229007633587783,-0.9115442278860569,0.05847076461769115,-0.4587706146926537,1491.5750915750914,97.0547278647452,30.41574600788299,
1770983559397.0547,4.434782608695652,-6.021739130434782,2.032608695652174,2.4967085577498502,-9.388390185517654,-0.31358467983243565,4061.5384615384614,1869.5970695970695,1.0,5.89909509770137,169.51752488100388,-8.946564885496183,14.946564885496183,-3.145038167938931,-0.9100449775112444,0.06896551724137931,-0.4662668665667166,1323.8095238095236,97.05188438533911,30.41574600788299,
1770983559416.5857,4.456521739130435,-6.032608695652174,2.0217391304347827,2.4895272292040693,-9.46259724715739,-0.2992220227408737,4084.981684981685,1892.3076923076922,1.0,5.893989866115303,169.66435686444345,-8.610687022900763,14.900763358778626,-3.49618320610687,-0.9175412293853074,0.07946026986506746,-0.4587706146926537,1189.0109890109889,97.04904090872274,30.41574600788299,
1770983559436.117,4.445652173913043,-5.967391304347826,2.043478260869565,2.4775583482944343,-9.395571514063436,-0.29443447037701975,4084.981684981685,1898.9010989010987,1.0,5.893989866115303,169.66435686444345,-8.030534351145038,14.870229007633586,-3.679389312977099,-0.9085457271364318,0.0704647676161919,-0.46026986506746626,1112.8205128205127,97.04904090872274,30.41574600788299,
1770983559455.648,4.456521739130435,-5.956521739130435,2.0760869565217392,2.4823459006582884,-9.323758228605625,-0.29204069419509276,4083.5164835164833,1912.087912087912,1.0,5.893989866115303,169.66435686444345,-8.015267175572518,15.358778625954198,-3.1908396946564883,-0.9160419790104948,0.07346326836581708,-0.46326836581709147,1102.5641025641025,97.0547278647452,30.41574600788299,
1770983559475.1792,4.445652173913043,-5.989130434782608,2.0217391304347827,2.4727707959305802,-9.35966487133453,-0.3087971274685817,4083.5164835164833,1909.1575091575091,1.0,5.893989866115303,169.66435686444345,-8.65648854961832,15.648854961832061,-3.282442748091603,-0.9115442278860569,0.04947526236881559,-0.46326836581709147,1142.857142857143,97.04619743489617,30.41574600788299,
1770983559494.7102,4.423913043478261,-5.967391304347826,1.9782608695652173,2.4631956912028725,-9.37642130460802,-0.3399162178336326,4079.1208791208787,1895.970695970696,1.0,5.8888846345292345,169.8114434330299,-8.549618320610687,15.862595419847327,-3.129770992366412,-0.9220389805097451,0.06446776611694152,-0.4737631184407796,1198.5347985347985,97.0547278647452,30.41574600788299,
1770983559514.2412,4.456521739130435,-5.967391304347826,1.9565217391304348,2.4751645721125075,-9.352483542788748,-0.36146020347097546,4082.0512820512818,1898.9010989010987,1.0,5.8888846345292345,169.8114434330299,-9.053435114503817,16.0,-3.2061068702290076,-0.9220389805097451,0.06446776611694152,-0.46176911544227883,1260.07326007326,97.05757134694109,30.41574600788299,
1770983559533.7725,4.478260869565217,-5.967391304347826,1.9565217391304348,2.4775583482944343,-9.354877318970676,-0.3901855176540993,4082.0512820512818,1899.6336996336995,1.0,5.8837794029431665,169.9587852494577,-8.82442748091603,16.244274809160306,-3.2061068702290076,-0.9175412293853074,0.07346326836581708,-0.4662668665667166,1318.6813186813185,97.05188438533911,30.41574600788299,
1770983559553.3037,4.478260869565217,-5.945652173913043,1.967391304347826,2.4967085577498502,-9.31897067624177,-0.38061041292639136,4060.07326007326,1874.7252747252746,1.0,5.8837794029431665,169.9587852494577,-9.435114503816793,16.62595419847328,-2.900763358778626,-0.9175412293853074,0.06446776611694152,-0.46176911544227883,1372.161172161172,97.05188438533911,30.41574600788299,
1770983559572.8347,4.489130434782608,-5.9021739130434785,1.967391304347826,2.4895272292040693,-9.283064033512867,-0.3901855176540993,4083.5164835164833,1898.9010989010987,1.0,5.8837794029431665,169.9587852494577,-9.786259541984732,17.358778625954198,-2.7938931297709924,-0.9235382308845577,0.05547226386806597,-0.46926536731634183,1413.1868131868132,97.05188438533911,30.41574600788299,
1770983559592.3655,4.456521739130435,-5.945652173913043,1.9456521739130435,2.503889886295631,-9.316576900059845,-0.36624775583482944,4082.0512820512818,1899.6336996336995,1.0,5.878674171357098,170.10638297872342,-10.13740458015267,18.0,-2.213740458015267,-0.9235382308845577,0.05997001499250375,-0.4587706146926537,1421.9780219780218,97.05757134694109,30.41574600788299,
1770983559611.8967,4.478260869565217,-6.010869565217392,1.9130434782608696,2.5062836624775584,-9.378815080789947,-0.43327348892878514,4082.0512820512818,1899.6336996336995,1.0,5.878674171357098,170.10638297872342,-10.748091603053435,17.81679389312977,-1.7709923664122136,-0.9250374812593702,0.05997001499250375,-0.4662668665667166,1400.0,97.05757134694109,30.41574600788299,
1770983559631.428,4.467391304347826,-6.021739130434782,1.9239130434782608,2.5086774386594852,-9.421903052064632,-0.46439257929383604,4057.142857142857,1867.3992673992673,1.0,5.8735689397710305,170.2542372881356,-11.145038167938932,17.709923664122137,-1.3282442748091603,-0.9250374812593702,0.06296851574212893,-0.4662668665667166,1364.8351648351647,97.0547278647452,30.41574600788299,
1770983559650.959,4.532608695652174,-5.989130434782608,1.9456521739130435,2.551765409934171,-9.409934171154998,-0.4045481747456613,4083.5164835164833,1896.7032967032965,1.0,5.8735689397710305,170.2542372881356,-11.282442748091603,18.229007633587784,-1.2366412213740459,-0.9235382308845577,0.06746626686656672,-0.46026986506746626,1334.7985347985348,97.05188438533911,30.41574600788299,
1770983559670.4902,4.554347826086956,-5.956521739130435,2.0,2.585278276481149,-9.362058647516458,-0.3518850987432675,4082.0512820512818,1898.9010989010987,1.0,5.8684637081849615,170.40234884732496,-11.343511450381678,19.16030534351145,-0.8549618320610687,-0.9190404797601199,0.08695652173913043,-0.46476761619190404,1304.0293040293038,97.05188438533911,30.41574600788299,
1770983559690.0212,4.543478260869565,-6.054347826086956,1.934782608695652,2.580490724117295,-9.426690604428485,-0.41172950329144226,4083.5164835164833,1906.227106227106,1.0,5.8684637081849615,170.40234884732496,-12.366412213740457,19.832061068702288,-1.0534351145038168,-0.9250374812593702,0.05697151424287856,-0.4707646176911544,1288.6446886446886,97.05757134694109,30.41574600788299,
1770983559709.5522,4.554347826086956,-6.141304347826087,1.934782608695652,2.539796529024536,-9.539198084979054,-0.4428485936564931,4058.6080586080584,1870.3296703296703,1.0,5.8684637081849615,170.40234884732496,-12.6412213740458,19.923664122137403,-0.6106870229007634,-0.9265367316341829,0.05697151424287856,-0.4767616191904048,1276.923076923077,97.05188438533911,30.41574600788299,
1770983559729.0835,4.5,-6.195652173913043,1.9130434782608696,2.515858767205266,-9.603830041891083,-0.4404548174745661,4055.6776556776554,1852.7472527472526,1.0,5.8633584765988935,170.55071832825428,-11.98473282442748,19.63358778625954,-0.7175572519083969,-0.9220389805097451,0.05397301349325337,-0.47826086956521735,1263.7362637362637,97.05188438533911,30.41574600788299,
1770983559748.6145,4.467391304347826,-6.184782608695652,1.9021739130434783,2.5062836624775584,-9.618192698982645,-0.43327348892878514,4083.5164835164833,1892.3076923076922,1.0,5.8633584765988935,170.55071832825428,-10.732824427480915,18.412213740458014,-0.9770992366412213,-0.9265367316341829,0.06896551724137931,-0.4737631184407796,1246.153846153846,97.0547278647452,30.41574600788299,
1770983559768.1458,4.456521739130435,-6.1521739130434785,1.9021739130434783,2.4991023339317775,-9.58228605625374,-0.45242369838420105,4082.0512820512818,1898.168498168498,1.0,5.8633584765988935,170.55071832825428,-9.633587786259541,16.77862595419847,-1.3282442748091603,-0.9325337331334332,0.06896551724137931,-0.472263868065967,1240.2930402930401,97.05188438533911,30.41574600788299,
1770983559787.6768,4.5,-6.141304347826087,1.9239130434782608,2.527827648114901,-9.543985637342908,-0.43327348892878514,4057.142857142857,1866.6666666666665,1.0,5.8633584765988935,170.55071832825428,-9.282442748091603,15.908396946564885,-2.1221374045801524,-0.9220389805097451,0.07496251874062969,-0.46926536731634183,1243.2234432234432,97.05188438533911,30.41574600788299,
1770983559807.2078,4.489130434782608,-6.076086956521739,1.9239130434782608,2.503889886295631,-9.488928785158587,-0.4021543985637343,4080.5860805860802,1890.1098901098899,1.0,5.858253245012826,170.69934640522877,-9.297709923664122,15.877862595419847,-2.198473282442748,-0.9385307346326837,0.07946026986506746,-0.4737631184407796,1256.4102564102564,97.05188438533911,30.41574600788299,
1770983559826.739,4.456521739130435,-5.989130434782608,1.9565217391304348,2.511071214841412,-9.412327947336923,-0.4021543985637343,4055.6776556776554,1857.8754578754576,1.0,5.858253245012826,170.69934640522877,-9.603053435114504,16.442748091603054,-2.916030534351145,-0.9310344827586207,0.07346326836581708,-0.46476761619190404,1275.4578754578754,97.05188438533911,30.41574600788299,
1770983559846.27,4.423913043478261,-5.945652173913043,1.934782608695652,2.4775583482944343,-9.345302214242968,-0.4260921603830042,4084.981684981685,1889.3772893772893,1.0,5.858253245012826,170.69934640522877,-9.725190839694656,17.114503816793892,-3.0076335877862594,-0.9340329835082458,0.07346326836581708,-0.4662668665667166,1283.5164835164835,97.04904090872274,30.41574600788299,
1770983559865.801,4.4021739130434785,-6.032608695652174,1.9130434782608696,2.4201077199281866,-9.369239976062238,-0.43327348892878514,4061.5384615384614,1865.9340659340658,1.0,5.8531480134267575,170.84823375490626,-10.183206106870228,17.16030534351145,-2.778625954198473,-0.9310344827586207,0.07496251874062969,-0.4737631184407796,1284.9816849816848,97.04904090872274,30.41574600788299,
1770983559885.3325,4.3478260869565215,-5.989130434782608,1.9130434782608696,2.36983842010772,-9.381208856971872,-0.46439257929383604,4084.981684981685,1891.5750915750914,1.0,5.84804278184069,170.99738105630732,-8.946564885496183,16.946564885496183,-1.9694656488549618,-0.9370314842578711,0.05847076461769115,-0.46926536731634183,1319.4139194139193,97.05188438533911,30.41574600788299,
1770983559904.8633,4.358695652173913,-5.913043478260869,1.9565217391304348,2.379413524835428,-9.330939557151407,-0.43327348892878514,4084.981684981685,1898.9010989010987,1.0,5.84804278184069,170.99738105630732,-8.0,16.82442748091603,-1.7251908396946565,-0.9430284857571214,0.05847076461769115,-0.4707646176911544,1430.03663003663,97.04619743489617,30.41574600788299,
1770983559924.3943,4.4021739130434785,-5.967391304347826,1.934782608695652,2.3889886295631357,-9.32854578096948,-0.4213046080191502,4083.5164835164833,1906.227106227106,1.0,5.84804278184069,170.99738105630732,-7.83206106870229,16.30534351145038,-0.5954198473282443,-0.9355322338830584,0.08245877061469264,-0.472263868065967,1610.989010989011,97.05188438533911,30.41574600788299,
1770983559943.9255,4.4021739130434785,-6.065217391304348,1.9021739130434783,2.4129263913824057,-9.421903052064632,-0.45960502692998206,4057.142857142857,1869.5970695970695,1.0,5.842937550254622,171.1467889908257,-8.50381679389313,16.106870229007633,0.12213740458015267,-0.9310344827586207,0.07496251874062969,-0.4767616191904048,1840.2930402930401,97.0547278647452,30.41574600788299,
1770983559963.4563,4.434782608695652,-6.043478260869565,1.8804347826086956,2.4512268102932375,-9.467384799521245,-0.48114901256732495,4084.981684981685,1893.040293040293,1.0,5.842937550254622,171.1467889908257,-8.061068702290076,15.81679389312977,0.564885496183206,-0.9310344827586207,0.047976011994003,-0.472263868065967,2042.4908424908424,97.0547278647452,30.41574600788299,
1770983559982.9878,4.478260869565217,-6.010869565217392,1.9021739130434783,2.4823459006582884,-9.441053261520048,-0.457211250748055,4083.5164835164833,1904.0293040293038,1.0,5.842937550254622,171.1467889908257,-7.7251908396946565,15.786259541984732,-0.10687022900763359,-0.9400299850074962,0.05997001499250375,-0.4677661169415292,2167.032967032967,97.0547278647452,30.41574600788299,
1770983560002.5188,4.5,-6.032608695652174,1.891304347826087,2.539796529024536,-9.42429682824656,-0.46439257929383604,4084.981684981685,1902.5641025641025,1.0,5.837832318668554,171.29645824223877,-7.908396946564885,15.541984732824426,-0.549618320610687,-0.9265367316341829,0.05697151424287856,-0.4752623688155922,2179.487179487179,97.05757134694109,30.41574600788299,
1770983560022.05,4.467391304347826,-6.108695652173913,1.8804347826086956,2.5254338719329743,-9.47935368043088,-0.4931178934769599,4060.07326007326,1874.7252747252746,1.0,5.84804278184069,170.99738105630732,-7.572519083969465,15.389312977099236,-0.7938931297709924,-0.9355322338830584,0.08695652173913043,-0.4932533733133433,2082.7838827838827,97.05188438533911,30.41574600788299,
1770983560041.581,4.467391304347826,-6.076086956521739,1.8804347826086956,2.503889886295631,-9.508078994614003,-0.473967684021544,4057.142857142857,1860.07326007326,1.0,5.84804278184069,170.99738105630732,-6.977099236641221,14.778625954198473,-1.2671755725190839,-0.9400299850074962,0.08245877061469264,-0.48575712143928035,1908.4249084249084,97.05757134694109,30.41574600788299,
1770983560061.112,4.456521739130435,-6.043478260869565,1.8804347826086956,2.4799521244763616,-9.443447037701974,-0.466786355475763,4083.5164835164833,1894.5054945054944,1.0,5.842937550254622,171.1467889908257,-6.061068702290076,13.587786259541984,-1.618320610687023,-0.9355322338830584,0.07796101949025487,-0.4767616191904048,1702.5641025641025,97.0547278647452,30.41574600788299,
1770983560080.6433,4.434782608695652,-6.021739130434782,1.8695652173913042,2.4703770197486534,-9.436265709156194,-0.476361460203471,4082.0512820512818,1898.168498168498,1.0,5.842937550254622,171.1467889908257,-5.66412213740458,12.717557251908396,-2.3053435114503817,-0.9370314842578711,0.07196401799100449,-0.4917541229385307,1501.8315018315018,97.04904090872274,30.41574600788299,
1770983560100.1743,4.423913043478261,-6.010869565217392,1.8152173913043477,2.4655894673847993,-9.402752842609216,-0.49790544584081387,4084.981684981685,1901.098901098901,1.0,5.837832318668554,171.29645824223877,-4.900763358778626,11.083969465648854,-2.854961832061069,-0.9355322338830584,0.05847076461769115,-0.48125937031484256,1318.6813186813185,97.05757134694109,30.41574600788299,
1770983560119.7056,4.434782608695652,-5.989130434782608,1.8478260869565217,2.4464392579293834,-9.3836026331538,-0.5146618791143028,4082.0512820512818,1900.3663003663003,1.0,5.837832318668554,171.29645824223877,-4.702290076335878,9.98473282442748,-3.129770992366412,-0.9355322338830584,0.06596701649175413,-0.47976011994003,1173.6263736263736,97.05188438533911,30.41574600788299,
1770983560139.2366,4.413043478260869,-5.978260869565217,1.9021739130434783,2.4248952722920407,-9.36684619988031,-0.4931178934769599,4082.0512820512818,1900.3663003663003,1.0,5.837832318668554,171.29645824223877,-3.877862595419847,9.068702290076336,-3.6030534351145036,-0.9370314842578711,0.07646176911544228,-0.48125937031484256,1098.168498168498,97.05757134694109,30.41574600788299,
1770983560158.7676,4.467391304347826,-5.989130434782608,1.8478260869565217,2.4703770197486534,-9.381208856971872,-0.5002992220227409,4084.981684981685,1901.098901098901,1.0,5.837832318668554,171.29645824223877,-3.83206106870229,8.122137404580153,-3.679389312977099,-0.9385307346326837,0.07796101949025487,-0.48275862068965514,1088.6446886446886,97.04904090872274,30.41574600788299,
1770983560178.2988,4.413043478260869,-6.021739130434782,1.826086956521739,2.4464392579293834,-9.400359066427288,-0.5242369838420108,4060.07326007326,1874.7252747252746,1.0,5.832727087082487,171.44638949671773,-4.198473282442748,8.213740458015266,-4.442748091603053,-0.9370314842578711,0.05397301349325337,-0.47976011994003,1128.937728937729,97.05188438533911,30.41574600788299,
1770983560197.8298,4.293478260869565,-6.043478260869565,1.858695652173913,2.312387791741472,-9.436265709156194,-0.5098743267504489,4083.5164835164833,1898.9010989010987,1.0,5.832727087082487,171.44638949671773,-3.66412213740458,7.3893129770992365,-3.633587786259542,-0.9430284857571214,0.05847076461769115,-0.48275862068965514,1201.4652014652013,97.05188438533911,30.41574600788299,
1770983560217.361,4.315217391304348,-6.130434782608695,1.8152173913043477,2.295631358467983,-9.534410532615201,-0.5146618791143028,4083.5164835164833,1906.227106227106,1.0,5.827621855496419,171.59658344283838,-3.7404580152671754,4.916030534351145,-3.7251908396946565,-0.9370314842578711,0.06596701649175413,-0.4872563718140929,1279.120879120879,97.05188438533911,30.41574600788299,
1770983560236.892,4.3478260869565215,-6.163043478260869,1.8043478260869565,2.331538001196888,-9.563135846798325,-0.5433871932974267,4082.0512820512818,1901.8315018315018,1.0,5.827621855496419,171.59658344283838,-3.2213740458015265,2.8854961832061066,-3.9083969465648853,-0.9460269865067465,0.06296851574212893,-0.4767616191904048,1355.3113553113553,97.0547278647452,30.41574600788299,
1770983560256.423,4.304347826086956,-6.1521739130434785,1.8152173913043477,2.336325553560742,-9.584679832435667,-0.5362058647516457,4083.5164835164833,1906.227106227106,1.0,5.822516623910351,171.74704077159143,-2.351145038167939,1.0381679389312977,-3.8167938931297707,-0.944527736131934,0.05997001499250375,-0.47976011994003,1405.8608058608058,97.0547278647452,30.41574600788299,
1770983560275.9543,4.260869565217392,-6.119565217391304,1.8369565217391304,2.288450029922202,-9.541591861160981,-0.5338120885697187,4080.5860805860802,1901.098901098901,1.0,5.822516623910351,171.74704077159143,-1.5267175572519083,-0.16793893129770993,-3.6488549618320607,-0.9415292353823088,0.08545727136431784,-0.48425787106446777,1432.9670329670328,97.05188438533911,30.41574600788299,
1770983560295.4854,4.260869565217392,-6.076086956521739,1.826086956521739,2.2549371633752244,-9.517654099341712,-0.5218432076600837,4082.0512820512818,1900.3663003663003,1.0,5.822516623910351,171.74704077159143,-1.6335877862595418,-1.5419847328244274,-3.709923664122137,-0.9415292353823088,0.050974512743628186,-0.47826086956521735,1439.5604395604394,97.0547278647452,30.41574600788299,
1770983560315.0164,4.260869565217392,-6.032608695652174,1.891304347826087,2.300418910831837,-9.45541591861161,-0.5290245362058648,4082.0512820512818,1900.3663003663003,1.0,5.817411392324284,171.89776217639317,-1.4351145038167938,-2.610687022900763,-4.3206106870229,-0.9415292353823088,0.06296851574212893,-0.4962518740629685,1418.3150183150183,97.0547278647452,30.41574600788299,
1770983560334.5476,4.239130434782608,-5.978260869565217,1.8478260869565217,2.264512268102932,-9.395571514063436,-0.5266307600239377,4058.6080586080584,1868.8644688644688,1.0,5.812306160738216,172.0487483530962,-1.114503816793893,-3.7404580152671754,-4.198473282442748,-0.9460269865067465,0.05847076461769115,-0.48125937031484256,1390.4761904761904,97.0547278647452,30.41574600788299,
1770983560354.0786,4.228260869565217,-5.978260869565217,1.826086956521739,2.2381807301017353,-9.374027528426092,-0.5290245362058648,4084.981684981685,1892.3076923076922,1.0,5.817411392324284,171.89776217639317,-1.297709923664122,-4.458015267175572,-3.9541984732824424,-0.9385307346326837,0.06596701649175413,-0.48875562218890556,1362.6373626373625,97.0604148319267,30.41574600788299,
1770983560373.61,4.217391304347826,-5.978260869565217,1.826086956521739,2.2262118491921004,-9.37642130460802,-0.5481747456612807,4082.0512820512818,1897.4358974358972,1.0,5.812306160738216,172.0487483530962,-0.9618320610687022,-5.83206106870229,-3.4045801526717554,-0.9415292353823088,0.06146926536731634,-0.4752623688155922,1327.4725274725274,97.0547278647452,30.41574600788299,
1770983560393.1409,4.217391304347826,-5.967391304347826,1.8369565217391304,2.2070616397366845,-9.37642130460802,-0.5601436265709157,4082.0512820512818,1899.6336996336995,1.0,5.807200929152148,172.20000000000002,-0.8396946564885496,-6.7328244274809155,-2.427480916030534,-0.9415292353823088,0.07346326836581708,-0.4737631184407796,1290.8424908424909,97.0547278647452,30.41574600788299,
1770983560412.672,4.228260869565217,-5.978260869565217,1.8369565217391304,2.2142429682824654,-9.354877318970676,-0.5505685218432076,4082.0512820512818,1899.6336996336995,1.0,5.807200929152148,172.20000000000002,-0.38167938931297707,-7.175572519083969,-1.465648854961832,-0.9385307346326837,0.08245877061469264,-0.5022488755622189,1263.003663003663,97.05757134694109,30.41574600788299,
1770983560432.2031,4.25,-5.978260869565217,1.8369565217391304,2.2573309395571513,-9.354877318970676,-0.5385996409335727,4082.0512820512818,1900.3663003663003,1.0,5.807200929152148,172.20000000000002,-0.7022900763358778,-8.091603053435113,-0.3053435114503817,-0.9355322338830584,0.07196401799100449,-0.4932533733133433,1246.8864468864467,97.05188438533911,30.41574600788299,
1770983560451.734,4.271739130434782,-5.978260869565217,1.8152173913043477,2.2453620586475163,-9.352483542788748,-0.5242369838420108,4082.0512820512818,1893.040293040293,1.0,5.802095697566081,172.35151781786186,-0.4427480916030534,-9.053435114503817,0.7633587786259541,-0.9385307346326837,0.06596701649175413,-0.48125937031484256,1238.8278388278388,97.0547278647452,30.41574600788299,
1770983560471.2654,4.304347826086956,-6.043478260869565,1.7717391304347825,2.2908438061041294,-9.42429682824656,-0.5840813883901855,4082.0512820512818,1898.168498168498,1.0,5.802095697566081,172.35151781786186,-1.3282442748091603,-10.0,1.6030534351145038,-0.9355322338830584,0.05397301349325337,-0.48425787106446777,1245.4212454212454,97.04619743489617,30.41574600788299,
1770983560490.7964,4.33695652173913,-6.032608695652174,1.75,2.326750448833034,-9.426690604428485,-0.6152004787552364,4060.07326007326,1874.7252747252746,1.0,5.796990465980013,172.50330250990754,-0.732824427480916,-10.977099236641221,1.8625954198473282,-0.9385307346326837,0.06896551724137931,-0.48875562218890556,1253.4798534798533,97.0547278647452,30.41574600788299,
1770983560510.3274,4.358695652173913,-6.0,1.8152173913043477,2.3889886295631357,-9.417115499700778,-0.5840813883901855,4055.6776556776554,1854.212454212454,1.0,5.796990465980013,172.50330250990754,-0.24427480916030533,-12.15267175572519,1.984732824427481,-0.9325337331334332,0.07946026986506746,-0.4917541229385307,1265.9340659340658,97.0547278647452,30.41574600788299,
1770983560529.8586,4.413043478260869,-5.989130434782608,1.8478260869565217,2.429682824655895,-9.362058647516458,-0.5242369838420108,4082.0512820512818,1887.179487179487,1.0,5.796990465980013,172.50330250990754,-0.8244274809160305,-12.610687022900763,2.4427480916030535,-0.9325337331334332,0.07496251874062969,-0.48875562218890556,1272.5274725274724,97.05188438533911,30.41574600788299,
1770983560549.3896,4.423913043478261,-5.956521739130435,1.8369565217391304,2.4416517055655294,-9.352483542788748,-0.5170556552962298,4082.0512820512818,1895.970695970696,1.0,5.791885234393945,172.65535478184225,-1.5419847328244274,-12.290076335877862,3.129770992366412,-0.9370314842578711,0.05397301349325337,-0.47976011994003,1285.7142857142856,97.05757134694109,30.41574600788299,
1770983560568.921,4.456521739130435,-5.956521739130435,1.8043478260869565,2.4751645721125075,-9.340514661879114,-0.5601436265709157,4057.142857142857,1865.9340659340658,1.0,5.791885234393945,172.65535478184225,-1.7862595419847327,-12.717557251908396,3.480916030534351,-0.9400299850074962,0.05847076461769115,-0.4767616191904048,1293.040293040293,97.05598028400726,30.405696097854523,
1770983560588.452,4.489130434782608,-5.934782608695652,1.826086956521739,2.4871334530221425,-9.333333333333334,-0.5505685218432076,4083.5164835164833,1896.7032967032965,1.0,5.791885234393945,172.65535478184225,-1.083969465648855,-13.236641221374045,3.3893129770992365,-0.9400299850074962,0.07196401799100449,-0.48575712143928035,1301.098901098901,97.05598028400726,30.405696097854523,
1770983560607.983,4.5,-5.945652173913043,1.9021739130434783,2.5254338719329743,-9.333333333333334,-0.5026929982046678,4083.5164835164833,1904.7619047619046,1.0,5.791885234393945,172.65535478184225,-1.1603053435114503,-13.801526717557252,3.8167938931297707,-0.9265367316341829,0.06146926536731634,-0.47976011994003,1351.6483516483515,97.05598028400726,30.405696097854523,
1770983560627.5142,4.521739130434782,-5.989130434782608,1.9130434782608696,2.535008976660682,-9.400359066427288,-0.4380610412926391,4084.981684981685,1902.5641025641025,1.0,5.786780002807876,172.8076753418615,-1.3587786259541985,-14.763358778625953,3.7709923664122136,-0.9415292353823088,0.08695652173913043,-0.4707646176911544,1481.3186813186812,97.04744998456728,30.405696097854523,
1770983560647.0452,4.565217391304348,-6.021739130434782,1.891304347826087,2.546977857570317,-9.397965290245361,-0.4452423698384201,4061.5384615384614,1870.3296703296703,1.0,5.786780002807876,172.8076753418615,-1.099236641221374,-14.732824427480915,3.2519083969465647,-0.9250374812593702,0.08695652173913043,-0.4872563718140929,1681.3186813186812,97.05313684807092,30.405696097854523,
1770983560666.5764,4.58695652173913,-6.010869565217392,1.9239130434782608,2.618791143028127,-9.390783961699581,-0.45242369838420105,4057.142857142857,1859.3406593406592,1.0,5.786780002807876,172.8076753418615,-1.5114503816793892,-15.129770992366412,2.7938931297709924,-0.9325337331334332,0.047976011994003,-0.4752623688155922,1903.296703296703,97.05313684807092,30.405696097854523,
1770983560686.1074,4.608695652173913,-6.043478260869565,1.9456521739130435,2.6235786953919806,-9.443447037701974,-0.43327348892878514,4083.5164835164833,1895.2380952380952,1.0,5.781674771221809,172.96026490066225,-2.229007633587786,-15.129770992366412,2.595419847328244,-0.9310344827586207,0.06596701649175413,-0.472263868065967,2100.3663003663,97.05598028400726,30.405696097854523,
1770983560705.6384,4.608695652173913,-6.065217391304348,1.9456521739130435,2.657091561938959,-9.4721723518851,-0.4069419509275883,4083.5164835164833,1904.7619047619046,1.0,5.781674771221809,172.96026490066225,-2.0763358778625953,-15.129770992366412,1.5877862595419847,-0.9310344827586207,0.06596701649175413,-0.4737631184407796,2205.8608058608056,97.05029341492425,30.405696097854523,
1770983560725.1697,4.5978260869565215,-6.065217391304348,1.9456521739130435,2.649910233393178,-9.476959904248952,-0.4213046080191502,4084.981684981685,1902.5641025641025,1.0,5.781674771221809,172.96026490066225,-1.9694656488549618,-14.839694656488549,0.7175572519083969,-0.9235382308845577,0.06296851574212893,-0.47976011994003,2192.6739926739924,97.04744998456728,30.405696097854523,
1770983560744.7007,4.5978260869565215,-6.076086956521739,2.0217391304347827,2.6403351286654697,-9.486535008976661,-0.3734290843806104,4083.5164835164833,1906.9597069597069,1.0,5.776569539635741,173.11312417145385,-1.4045801526717556,-14.763358778625953,0.10687022900763359,-0.9220389805097451,0.07196401799100449,-0.4767616191904048,2076.9230769230767,97.05029341492425,30.405696097854523,
1770983560764.2317,4.608695652173913,-6.065217391304348,2.032608695652174,2.6427289048473965,-9.491322561340514,-0.2992220227408737,4055.6776556776554,1863.003663003663,1.0,5.771464308049673,173.26625386996906,-1.450381679389313,-14.351145038167939,-0.8702290076335878,-0.9340329835082458,0.07196401799100449,-0.47826086956521735,1898.9010989010987,97.05029341492425,30.405696097854523,
1770983560783.763,4.565217391304348,-6.032608695652174,2.0543478260869565,2.6307600239377615,-9.41472172351885,-0.2728904847396768,4083.5164835164833,1895.2380952380952,1.0,5.771464308049673,173.26625386996906,-0.6717557251908397,-13.511450381679388,-1.2366412213740459,-0.9235382308845577,0.08545727136431784,-0.48275862068965514,1692.3076923076922,97.05029341492425,30.405696097854523,
1770983560803.294,4.489130434782608,-5.989130434782608,2.0760869565217392,2.546977857570317,-9.3836026331538,-0.2800718132854578,4060.07326007326,1873.260073260073,1.0,5.771464308049673,173.26625386996906,-0.732824427480916,-13.526717557251908,-1.5725190839694656,-0.9220389805097451,0.05547226386806597,-0.47826086956521735,1479.120879120879,97.05313684807092,30.405696097854523,
1770983560822.8252,4.510869565217392,-6.010869565217392,2.0760869565217392,2.5302214242968284,-9.385996409335727,-0.22980251346499103,4057.142857142857,1859.3406593406592,1.0,5.771464308049673,173.26625386996906,-0.7480916030534351,-13.48091603053435,-1.4961832061068703,-0.9235382308845577,0.05997001499250375,-0.47826086956521735,1286.4468864468863,97.05598028400726,30.405696097854523,
1770983560842.3562,4.510869565217392,-6.021739130434782,2.130434782608696,2.546977857570317,-9.419509275882705,-0.19389587073608616,4083.5164835164833,1894.5054945054944,1.0,5.766359076463605,173.41965471447546,-0.5343511450381679,-13.267175572519083,-1.5572519083969465,-0.9235382308845577,0.06446776611694152,-0.46926536731634183,1144.3223443223442,97.05313684807092,30.405696097854523,
1770983560861.8872,4.521739130434782,-6.054347826086956,2.152173913043478,2.523040095751047,-9.438659485338121,-0.19628964691801315,4082.0512820512818,1898.168498168498,1.0,5.766359076463605,173.41965471447546,-0.0916030534351145,-12.916030534351144,-1.297709923664122,-0.9265367316341829,0.06746626686656672,-0.45577211394302847,1075.4578754578754,97.05598028400726,30.405696097854523,
1770983560881.4185,4.478260869565217,-6.043478260869565,2.0760869565217392,2.52064631956912,-9.45541591861161,-0.20347097546379414,4084.981684981685,1900.3663003663003,1.0,5.761253844877538,173.57332742578646,0.061068702290076333,-12.717557251908396,-0.8396946564885496,-0.9280359820089955,0.050974512743628186,-0.46176911544227883,1061.5384615384614,97.05029341492425,30.405696097854523,
1770983560900.9497,4.489130434782608,-6.076086956521739,2.0869565217391304,2.535008976660682,-9.457809694793536,-0.22501496110113703,4084.981684981685,1901.8315018315018,1.0,5.761253844877538,173.57332742578646,0.8396946564885496,-12.320610687022901,-0.7633587786259541,-0.9205397301349325,0.050974512743628186,-0.46326836581709147,1111.3553113553112,97.05313684807092,30.405696097854523,
1770983560920.4807,4.489130434782608,-6.021739130434782,2.152173913043478,2.5254338719329743,-9.443447037701974,-0.19389587073608616,4055.6776556776554,1862.2710622710622,1.0,5.75614861329147,173.72727272727275,1.1450381679389312,-11.98473282442748,-1.2519083969465647,-0.9160419790104948,0.05547226386806597,-0.4737631184407796,1200.0,97.05598028400726,30.405696097854523,
1770983560940.0117,4.489130434782608,-6.054347826086956,2.108695652173913,2.5302214242968284,-9.429084380610412,-0.2130460801915021,4083.5164835164833,1895.2380952380952,1.0,5.75614861329147,173.72727272727275,0.6870229007633587,-11.114503816793892,-1.3435114503816794,-0.9205397301349325,0.0704647676161919,-0.472263868065967,1301.098901098901,97.05029341492425,30.405696097854523,
1770983560959.5427,4.456521739130435,-6.054347826086956,2.0760869565217392,2.511071214841412,-9.426690604428485,-0.22740873728306402,4058.6080586080584,1867.3992673992673,1.0,5.761253844877538,173.57332742578646,1.2061068702290076,-10.900763358778626,-1.6793893129770991,-0.9220389805097451,0.06296851574212893,-0.46476761619190404,1395.6043956043954,97.05313684807092,30.405696097854523,
1770983560979.074,4.445652173913043,-6.010869565217392,2.108695652173913,2.4823459006582884,-9.388390185517654,-0.2704967085577498,4055.6776556776554,1852.0146520146518,1.0,5.75614861329147,173.72727272727275,1.3129770992366412,-10.412213740458014,-2.213740458015267,-0.9160419790104948,0.06596701649175413,-0.46476761619190404,1458.6080586080584,97.05598028400726,30.405696097854523,
1770983560998.605,4.434782608695652,-6.010869565217392,2.119565217391304,2.4584081388390184,-9.390783961699581,-0.24416517055655296,4083.5164835164833,1892.3076923076922,1.0,5.75614861329147,173.72727272727275,1.5114503816793892,-9.801526717557252,-2.1374045801526718,-0.9235382308845577,0.08245877061469264,-0.4587706146926537,1482.051282051282,97.05029341492425,30.405696097854523,
1770983561018.1362,4.413043478260869,-6.032608695652174,2.0652173913043477,2.4272890484739675,-9.441053261520048,-0.26810293237582283,4079.1208791208787,1890.1098901098899,1.0,5.75614861329147,173.72727272727275,1.465648854961832,-9.923664122137405,-2.3053435114503817,-0.9220389805097451,0.08695652173913043,-0.46926536731634183,1470.3296703296703,97.05029341492425,30.405696097854523,
1770983561037.6672,4.4021739130434785,-6.054347826086956,2.043478260869565,2.4033512866546975,-9.443447037701974,-0.3087971274685817,4083.5164835164833,1904.0293040293038,1.0,5.751043381705402,173.88149134487352,1.83206106870229,-9.709923664122137,-2.0610687022900764,-0.9190404797601199,0.05847076461769115,-0.46926536731634183,1444.6886446886447,97.04460655699997,30.405696097854523,
1770983561057.1982,4.369565217391305,-6.043478260869565,2.043478260869565,2.4033512866546975,-9.441053261520048,-0.3040095751047277,4082.0512820512818,1901.098901098901,1.0,5.751043381705402,173.88149134487352,1.7099236641221374,-9.954198473282442,-1.8473282442748091,-0.9145427286356821,0.07346326836581708,-0.4737631184407796,1402.197802197802,97.05029341492425,30.405696097854523,
1770983561076.7295,4.391304347826087,-6.032608695652174,2.010869565217391,2.4033512866546975,-9.421903052064632,-0.3016157989228007,4082.0512820512818,1900.3663003663003,1.0,5.7459381501193345,174.03598400710797,1.297709923664122,-10.259541984732824,-2.1526717557251906,-0.9160419790104948,0.06296851574212893,-0.46476761619190404,1354.5787545787546,97.05029341492425,30.405696097854523,
