Shimmer_A679_TimestampSync_Unix_CAL,Shimmer_A679_Accel_LN_X_CAL,Shimmer_A679_Accel_LN_Y_CAL,Shimmer_A679_Accel_LN_Z_CAL,Shimmer_A679_Accel_WR_X_CAL,Shimmer_A679_Accel_WR_Y_CAL,Shimmer_A679_Accel_WR_Z_CAL,Shimmer_A679_Battery_CAL,Shimmer_A679_Ext_Exp_A15_CAL,Shimmer_A679_GSR_Range_CAL,Shimmer_A679_GSR_Skin_Conductance_CAL,Shimmer_A679_GSR_Skin_Resistance_CAL,Shimmer_A679_Gyro_X_CAL,Shimmer_A679_Gyro_Y_CAL,Shimmer_A679_Gyro_Z_CAL,Shimmer_A679_Mag_X_CAL,Shimmer_A679_Mag_Y_CAL,Shimmer_A679_Mag_Z_CAL,Shimmer_A679_PPG_A13_CAL,Shimmer_A679_Pressure_BMP280_CAL,Shimmer_A679_Temperature_BMP280_CAL,Unnamed: 21
1770985025010.9043,6.141304347826087,-4.717391304347826,2.75,4.442848593656493,-8.186714542190305,0.5050867743865949,4054.212454212454,1838.8278388278386,1.0,6.680195530369747,149.696217042415,35.38931297709924,36.61068702290076,-121.64885496183206,-0.9430284857571214,0.017991004497751123,-0.46926536731634183,1215.3846153846152,97.03193846182639,31.440842946083286,
1770985025030.4355,5.521739130434782,-4.228260869565217,2.7065217391304346,3.70556552962298,-7.53081986834231,0.457211250748055,4054.212454212454,1849.084249084249,1.0,6.675090298783678,149.81070745697897,31.832061068702288,35.038167938931295,-113.81679389312977,-0.95952023988006,0.041979010494752625,-0.48125937031484256,1145.054945054945,97.02909044486265,31.440842946083286,
1770985025049.9668,4.978260869565217,-3.9456521739130435,2.5869565217391304,3.06163973668462,-7.174147217235189,0.3016157989228007,4054.212454212454,1852.0146520146518,1.0,6.66998506719761,149.92537313432837,28.29007633587786,32.18320610687023,-104.09160305343511,-0.9625187406296851,-0.0029985007496251873,-0.472263868065967,1087.9120879120878,97.03478648158885,31.440842946083286,
1770985025069.4978,4.510869565217392,-3.7391304347826084,2.380434782608696,2.52064631956912,-6.937163375224416,0.13165769000598443,4054.212454212454,1852.7472527472526,1.0,6.664879835611543,150.0402144772118,24.732824427480914,28.99236641221374,-91.41984732824427,-0.9745127436281859,0.0029985007496251873,-0.4707646176911544,1052.7472527472528,97.03193846182639,31.440842946083286,
1770985025089.029,4.293478260869565,-3.684782608695652,2.25,2.2501496110113703,-6.855774985038899,-0.026331538001196888,4055.6776556776554,1847.6190476190475,1.0,6.659774604025475,150.15523188961288,20.137404580152673,24.335877862595417,-78.03053435114504,-0.9745127436281859,0.0,-0.48875562218890556,1046.8864468864467,97.02909044486265,31.440842946083286,
1770985025108.56,4.326086956521739,-3.782608695652174,2.152173913043478,2.314781567923399,-6.86295631358468,-0.2872531418312388,4055.6776556776554,1846.153846153846,1.0,6.659774604025475,150.15523188961288,13.114503816793892,21.19083969465649,-63.80152671755725,-0.9880059970014993,-0.005997001499250375,-0.4872563718140929,1063.003663003663,97.02624243069765,31.440842946083286,
1770985025128.091,4.184782608695652,-3.902173913043478,2.282608695652174,2.2118491921005385,-7.020945541591861,-0.17474566128067026,4032.234432234432,1812.4542124542124,1.0,6.654669372439407,150.2704257767549,6.458015267175572,19.954198473282442,-46.79389312977099,-0.9820089955022488,-0.0029985007496251873,-0.49025487256371814,1088.6446886446886,97.03193846182639,31.440842946083286,
1770985025147.6223,4.369565217391305,-4.184782608695652,2.5,2.1879114302812686,-7.1573907839616995,0.0933572710951526,4055.6776556776554,1836.6300366300366,1.0,6.6495641408533395,150.38579654510556,-3.969465648854962,21.389312977099237,-31.267175572519083,-0.985007496251874,-0.013493253373313342,-0.4992503748125937,1152.3809523809523,97.03193846182639,31.440842946083286,
1770985025167.1533,4.576086956521739,-4.619565217391305,2.4782608695652173,2.511071214841412,-7.6768402154398565,0.19389587073608616,4054.212454212454,1848.3516483516482,1.0,6.6495641408533395,150.38579654510556,-13.770992366412214,25.755725190839694,-16.33587786259542,-0.9835082458770614,-0.019490254872563718,-0.4977511244377811,1235.8974358974358,97.03193846182639,31.440842946083286,
1770985025186.6846,4.369565217391305,-4.826086956521739,2.4239130434782608,2.4751645721125075,-8.038300418910831,0.15320167564332735,4054.212454212454,1852.0146520146518,1.0,6.6444589092672715,150.50134460238186,-17.84732824427481,31.61832061068702,-1.6946564885496183,-0.9955022488755622,-0.020989505247376312,-0.4872563718140929,1308.4249084249084,97.03193846182639,31.440842946083286,
1770985025206.2156,4.33695652173913,-4.880434782608695,2.3478260869565215,2.2740873728306403,-8.122082585278276,0.045481747456612806,4055.6776556776554,1848.3516483516482,1.0,6.6444589092672715,150.50134460238186,-22.427480916030532,35.160305343511446,9.007633587786259,-0.9910044977511244,-0.017991004497751123,-0.4977511244377811,1377.2893772893772,97.02624243069765,31.440842946083286,
1770985025225.7466,4.641304347826087,-5.1521739130434785,2.391304347826087,2.491921005385996,-8.335128665469778,0.0718132854578097,4052.7472527472523,1845.4212454212452,1.0,6.6393536776812025,150.6170703575548,-26.946564885496183,37.038167938931295,19.32824427480916,-1.0029985007496252,-0.004497751124437781,-0.5157421289355322,1415.3846153846152,97.03193846182639,31.440842946083286,
1770985025245.2778,4.923913043478261,-5.391304347826087,2.5217391304347827,2.8701376421304605,-8.639138240574505,0.20586475164572113,4026.373626373626,1802.9304029304028,1.0,6.634248446095136,150.73297422085417,-29.038167938931295,37.9236641221374,29.740458015267173,-0.985007496251874,-0.0029985007496251873,-0.5082458770614693,1431.5018315018315,97.03763450415,31.440842946083286,
1770985025264.8088,5.010869565217392,-5.521739130434782,2.652173913043478,3.018551765409934,-8.847396768402154,0.3710353081986834,4055.6776556776554,1833.6996336996335,1.0,6.634248446095136,150.73297422085417,-29.175572519083968,37.52671755725191,39.038167938931295,-0.9910044977511244,0.005997001499250375,-0.505247376311844,1416.8498168498168,97.02909044486265,31.440842946083286,
1770985025284.34,5.054347826086956,-5.576086956521739,2.760869565217391,3.080789946140036,-8.940754039497307,0.48354278874925194,4032.234432234432,1808.7912087912086,1.0,6.629143214509068,150.8490566037736,-28.732824427480914,35.06870229007633,45.87786259541985,-0.9985007496251874,-0.005997001499250375,-0.5067466266866567,1379.4871794871794,97.02624243069765,31.440842946083286,
1770985025303.871,5.293478260869565,-5.630434782608695,2.902173913043478,3.262716935966487,-8.971873129862358,0.6535008976660682,4057.142857142857,1841.7582417582416,1.0,6.624037982923,150.96531791907515,-29.48091603053435,32.87022900763359,50.83969465648855,-0.9835082458770614,-0.01199400299850075,-0.5142428785607196,1331.135531135531,97.04048252950989,31.440842946083286,
1770985025323.402,5.521739130434782,-5.815217391304348,2.9239130434782608,3.5882704967085575,-9.16816277678037,0.687013764213046,4055.6776556776554,1844.6886446886447,1.0,6.618932751336932,151.08175858079446,-30.015267175572518,30.30534351145038,55.358778625954194,-0.9895052473763118,-0.005997001499250375,-0.5097451274362819,1280.5860805860805,97.03478648158885,31.440842946083286,
1770985025342.933,5.489130434782608,-5.858695652173913,2.967391304347826,3.6026331538001197,-9.307001795332136,0.7109515260323159,4055.6776556776554,1845.4212454212452,1.0,6.613827519750864,151.19837900424548,-28.015267175572518,27.19083969465649,58.396946564885496,-0.9820089955022488,0.005997001499250375,-0.5187406296851574,1241.0256410256409,97.02339441933135,31.440842946083286,
1770985025362.4644,5.478260869565217,-5.739130434782608,3.032608695652174,3.5882704967085575,-9.165769000598443,0.7971274685816876,4029.304029304029,1810.2564102564102,1.0,6.608722288164796,151.3151796060255,-26.641221374045802,21.053435114503817,59.93893129770992,-0.9805097451274363,0.010494752623688156,-0.5097451274362819,1212.4542124542124,97.03193846182639,31.440842946083286,
1770985025381.9954,5.4021739130434785,-5.706521739130435,3.0760869565217392,3.559545182525434,-9.091561938958707,0.8593656493117894,4055.6776556776554,1835.8974358974358,1.0,6.608722288164796,151.3151796060255,-26.62595419847328,10.534351145038167,61.175572519083964,-0.9730134932533733,0.020989505247376312,-0.512743628185907,1205.8608058608058,97.03478648158885,31.440842946083286,
1770985025401.5266,5.58695652173913,-5.75,3.2065217391304346,3.6481149012567324,-9.146618791143029,1.0149611011370436,4027.8388278388275,1806.5934065934064,1.0,6.603617056578729,151.4321608040201,-27.34351145038168,-1.5725190839694656,61.9236641221374,-0.9655172413793103,0.020989505247376312,-0.5172413793103449,1219.047619047619,97.02624243069765,31.440842946083286,
1770985025421.0576,5.804347826086956,-5.891304347826087,3.1956521739130435,3.9353680430879714,-9.297426690604429,1.0125673249551166,4055.6776556776554,1835.164835164835,1.0,6.603617056578729,151.4321608040201,-28.412213740458014,-14.442748091603052,61.55725190839694,-0.9640179910044977,0.029985007496251874,-0.5217391304347826,1243.956043956044,97.02909044486265,31.440842946083286,
1770985025440.5889,5.804347826086956,-5.9021739130434785,3.0869565217391304,3.971274685816876,-9.371633752244165,0.926391382405745,4032.234432234432,1809.5238095238094,1.0,6.59851182499266,151.54932301740814,-27.19083969465649,-22.65648854961832,59.98473282442748,-0.9610194902548725,0.0239880059970015,-0.5067466266866567,1274.7252747252746,97.03193846182639,31.440842946083286,
1770985025460.12,5.858695652173913,-5.804347826086956,3.0652173913043477,4.028725314183124,-9.220825852782765,0.8402154398563734,4057.142857142857,1841.7582417582416,1.0,6.59851182499266,151.54932301740814,-24.900763358778626,-27.450381679389313,57.02290076335878,-0.9565217391304347,0.01199400299850075,-0.5007496251874063,1297.4358974358975,97.02624243069765,31.440842946083286,
1770985025479.651,6.032608695652174,-5.815217391304348,3.043478260869565,4.17474566128067,-9.235188509874327,0.8450029922202273,4055.6776556776554,1844.6886446886447,1.0,6.593406593406592,151.66666666666669,-23.923664122137403,-30.870229007633586,54.2442748091603,-0.9550224887556221,0.029985007496251874,-0.505247376311844,1326.7399267399267,97.03763450415,31.440842946083286,
1770985025499.182,5.967391304347826,-5.880434782608695,2.934782608695652,4.162776780371035,-9.266307600239378,0.713345302214243,4054.212454212454,1850.5494505494505,1.0,6.593406593406592,151.66666666666669,-21.755725190839694,-34.274809160305345,51.63358778625954,-0.9460269865067465,0.034482758620689655,-0.4992503748125937,1343.5897435897434,97.03193846182639,31.440842946083286,
1770985025518.7131,5.9021739130434785,-5.826086956521739,2.8369565217391304,4.0598444045481745,-9.275882704967085,0.5936564931178935,4055.6776556776554,1853.4798534798533,1.0,6.593406593406592,151.66666666666669,-19.893129770992367,-36.47328244274809,48.94656488549618,-0.9475262368815592,0.04047976011994003,-0.48275862068965514,1336.263736263736,97.03193846182639,31.440842946083286,
1770985025538.2444,5.804347826086956,-5.793478260869565,2.7391304347826084,4.016756433273489,-9.249551166965889,0.5362058647516457,4055.6776556776554,1848.3516483516482,1.0,6.583196130234457,151.9018999612253,-17.923664122137403,-38.3206106870229,46.19847328244275,-0.944527736131934,0.02848575712143928,-0.4752623688155922,1309.1575091575091,97.03478648158885,31.440842946083286,
1770985025557.7754,5.608695652173913,-5.83695652173913,2.684782608695652,3.8396169958108914,-9.237582286056254,0.471573907839617,4026.373626373626,1803.6630036630036,1.0,6.583196130234457,151.9018999612253,-16.80916030534351,-41.87786259541985,44.045801526717554,-0.9280359820089955,0.05697151424287856,-0.48875562218890556,1274.7252747252746,97.03193846182639,31.440842946083286,
1770985025577.3064,5.510869565217392,-5.8478260869565215,2.619565217391304,3.727109515260323,-9.235188509874327,0.3949730700179533,4054.212454212454,1839.5604395604394,1.0,6.57809089864839,152.0197904540163,-14.82442748091603,-46.167938931297705,40.50381679389313,-0.9295352323838081,0.0239880059970015,-0.4752623688155922,1235.8974358974358,97.03763450415,31.440842946083286,
1770985025596.8376,5.456521739130435,-5.826086956521739,2.532608695652174,3.6193895870736084,-9.25673249551167,0.33273488928785155,4030.7692307692305,1814.6520146520145,1.0,6.57809089864839,152.0197904540163,-13.129770992366412,-50.61068702290076,36.74809160305343,-0.9175412293853074,0.05247376311844078,-0.4752623688155922,1200.0,97.02909044486265,31.440842946083286,
1770985025616.369,5.380434782608695,-5.923913043478261,2.4239130434782608,3.5427887492519448,-9.321364452423698,0.2106523040095751,4055.6776556776554,1837.3626373626373,1.0,6.572985667062321,152.13786407766992,-12.702290076335878,-55.49618320610687,33.06870229007634,-0.9235382308845577,0.041979010494752625,-0.472263868065967,1161.904761904762,97.02624243069765,31.440842946083286,
1770985025635.9,5.3478260869565215,-5.956521739130435,2.282608695652174,3.480550568521843,-9.362058647516458,0.023937761819269897,4054.212454212454,1849.084249084249,1.0,6.567880435476255,152.25612125923047,-11.129770992366412,-58.62595419847328,29.251908396946565,-0.9040479760119939,0.041979010494752625,-0.4587706146926537,1134.065934065934,97.03193846182639,31.440842946083286,
1770985025655.431,5.282608695652174,-5.989130434782608,2.0869565217391304,3.473369239976062,-9.443447037701974,-0.16517055655296228,4054.212454212454,1852.0146520146518,1.0,6.562775203890187,152.37456242707117,-9.633587786259541,-60.213740458015266,26.213740458015266,-0.9115442278860569,0.04497751124437781,-0.4662668665667166,1119.4139194139193,97.02909044486265,31.440842946083286,
1770985025674.962,5.1521739130434785,-5.967391304347826,1.9891304347826086,3.305804907241173,-9.421903052064632,-0.2896469180131658,4055.6776556776554,1847.6190476190475,1.0,6.562775203890187,152.37456242707117,-7.557251908396946,-59.19083969465649,22.076335877862594,-0.9160419790104948,0.06446776611694152,-0.46026986506746626,1110.6227106227107,97.03193846182639,31.440842946083286,
1770985025694.4932,5.119565217391304,-5.989130434782608,1.967391304347826,3.238779174147217,-9.42429682824656,-0.34470377019748655,4054.212454212454,1851.2820512820513,1.0,6.557669972304119,152.4931880108992,-6.763358778625954,-55.38931297709924,18.83969465648855,-0.9025487256371814,0.037481259370314844,-0.4587706146926537,1111.3553113553112,97.03763450415,31.440842946083286,
1770985025714.0242,5.08695652173913,-6.010869565217392,1.8804347826086956,3.2196289646918013,-9.41472172351885,-0.4428485936564931,4026.373626373626,1805.128205128205,1.0,6.557669972304119,152.4931880108992,-5.480916030534351,-50.38167938931298,16.381679389312975,-0.8980509745127436,0.034482758620689655,-0.46176911544227883,1112.8205128205127,97.03763450415,31.440842946083286,
1770985025733.5554,4.978260869565217,-6.054347826086956,1.8152173913043477,3.08557749850389,-9.47935368043088,-0.5146618791143028,4054.212454212454,1839.5604395604394,1.0,6.552564740718051,152.61199844176082,-4.519083969465648,-44.0,13.755725190839694,-0.8920539730134932,0.04497751124437781,-0.45277361319340326,1109.1575091575091,97.03193846182639,31.440842946083286,
1770985025753.0864,4.8478260869565215,-6.08695652173913,1.8478260869565217,2.9347695990424896,-9.543985637342908,-0.5170556552962298,4030.7692307692305,1814.6520146520145,1.0,6.552564740718051,152.61199844176082,-3.969465648854962,-36.88549618320611,11.83206106870229,-0.8935532233883058,0.04947526236881559,-0.4497751124437781,1125.2747252747251,97.02909044486265,31.440842946083286,
1770985025772.6174,4.75,-6.1521739130434785,1.8369565217391304,2.836624775583483,-9.599042489527228,-0.5050867743865949,4027.8388278388275,1800.7326007326005,1.0,6.547459509131984,152.73099415204678,-3.9847328244274807,-29.908396946564885,10.213740458015266,-0.889055472263868,0.04047976011994003,-0.4467766116941529,1151.6483516483515,97.03193846182639,31.440842946083286,
1770985025792.1487,4.554347826086956,-6.184782608695652,1.7934782608695652,2.6403351286654697,-9.637342908438061,-0.5745062836624776,4054.212454212454,1838.8278388278386,1.0,6.547459509131984,152.73099415204678,-4.183206106870228,-23.709923664122137,8.580152671755725,-0.8905547226386806,0.04497751124437781,-0.44377811094452774,1187.5457875457876,97.03478648158885,31.440842946083286,
1770985025811.6797,4.445652173913043,-6.195652173913043,1.7608695652173914,2.4727707959305802,-9.644524236983841,-0.5960502692998204,4054.212454212454,1849.084249084249,1.0,6.542354277545915,152.85017557549747,-4.488549618320611,-18.106870229007633,7.267175572519084,-0.889055472263868,0.047976011994003,-0.4422788605697151,1265.9340659340658,97.03637559242291,31.45089297601953,
1770985025831.2107,4.391304347826087,-6.260869565217391,1.7717391304347825,2.4129263913824057,-9.694793536804308,-0.5840813883901855,4055.6776556776554,1846.8864468864467,1.0,6.537249045959848,152.96954314720813,-5.1603053435114505,-13.221374045801527,4.870229007633587,-0.8875562218890555,0.043478260869565216,-0.4512743628185907,1375.091575091575,97.02783140271136,31.45089297601953,
1770985025850.742,4.239130434782608,-6.25,1.8152173913043477,2.2740873728306403,-9.733093955715141,-0.5936564931178935,4055.6776556776554,1846.153846153846,1.0,6.537249045959848,152.96954314720813,-5.511450381679389,-9.31297709923664,4.412213740458015,-0.8830584707646176,0.038980509745127435,-0.4422788605697151,1490.10989010989,97.03922366125771,31.45089297601953,
1770985025870.273,4.1521739130434785,-6.271739130434782,1.7717391304347825,2.1256732495511668,-9.72591262716936,-0.5816876122082585,4054.212454212454,1851.2820512820513,1.0,6.53214381437378,153.08909730363422,-6.3969465648854955,-7.49618320610687,3.4198473282442747,-0.8830584707646176,0.029985007496251874,-0.43478260869565216,1575.091575091575,97.03922366125771,31.45089297601953,
1770985025889.8042,4.08695652173913,-6.304347826086956,1.7934782608695652,2.0754039497307,-9.761819269898265,-0.6152004787552364,4055.6776556776554,1847.6190476190475,1.0,6.527038582787711,153.2088384825968,-7.587786259541985,-6.671755725190839,3.1755725190839694,-0.889055472263868,0.04047976011994003,-0.43778110944527737,1617.5824175824175,97.03352752638692,31.45089297601953,
1770985025909.3352,4.065217391304348,-6.304347826086956,1.7826086956521738,2.0658288450029922,-9.761819269898265,-0.5936564931178935,4032.234432234432,1812.4542124542124,1.0,6.5219333512016435,153.32876712328766,-8.244274809160306,-5.648854961832061,2.946564885496183,-0.8830584707646176,0.04047976011994003,-0.43928035982008995,1618.3150183150183,97.02783140271136,31.45089297601953,
1770985025928.8662,4.08695652173913,-6.293478260869565,1.7717391304347825,2.056253740275284,-9.761819269898265,-0.6056253740275284,4029.304029304029,1801.4652014652013,1.0,6.5219333512016435,153.32876712328766,-9.038167938931297,-4.7328244274809155,3.129770992366412,-0.8860569715142429,0.04947526236881559,-0.4332833583208396,1581.6849816849815,97.03352752638692,31.45089297601953,
1770985025948.3977,4.0,-6.282608695652174,1.7608695652173914,2.0155595451825254,-9.728306403351286,-0.5864751645721125,4055.6776556776554,1832.9670329670328,1.0,6.5168281196155755,153.44888366627498,-9.297709923664122,-2.763358778625954,2.9770992366412212,-0.8755622188905547,0.046476761619190406,-0.43478260869565216,1528.937728937729,97.03637559242291,31.45089297601953,
1770985025967.9285,3.9565217391304346,-6.260869565217391,1.7826086956521738,1.9389587073608616,-9.70197486535009,-0.5864751645721125,4054.212454212454,1847.6190476190475,1.0,6.5117228880295075,153.56918855350844,-9.66412213740458,-1.5114503816793892,2.854961832061069,-0.8800599700149925,0.04047976011994003,-0.43628185907046474,1461.5384615384614,97.04207173289132,31.45089297601953,
1770985025987.4597,3.9565217391304346,-6.271739130434782,1.7608695652173914,1.9030520646319569,-9.721125074805505,-0.5673249551166966,4055.6776556776554,1846.153846153846,1.0,6.5066176564434395,153.68968222832484,-9.908396946564885,-0.42748091603053434,1.7862595419847327,-0.8725637181409295,0.034482758620689655,-0.4422788605697151,1401.4652014652013,97.03067946314974,31.45089297601953,
1770985026006.9907,3.934782608695652,-6.239130434782608,1.8043478260869565,1.9293836026331537,-9.692399760622381,-0.5721125074805505,4055.6776556776554,1846.153846153846,1.0,6.5066176564434395,153.68968222832484,-9.068702290076336,0.015267175572519083,1.4961832061068703,-0.8860569715142429,0.041979010494752625,-0.43778110944527737,1354.5787545787546,97.02783140271136,31.45089297601953,
1770985026026.5215,3.869565217391304,-6.271739130434782,1.8043478260869565,1.859964093357271,-9.690005984440454,-0.5409934171154996,4027.8388278388275,1809.5238095238094,1.0,6.501512424857372,153.81036513545348,-8.900763358778626,-0.47328244274809156,0.9770992366412213,-0.889055472263868,0.037481259370314844,-0.43628185907046474,1325.2747252747251,97.03637559242291,31.45089297601953,
1770985026046.053,3.8260869565217392,-6.282608695652174,1.717391304347826,1.8001196888090962,-9.733093955715141,-0.5816876122082585,4055.6776556776554,1835.164835164835,1.0,6.501512424857372,153.81036513545348,-7.862595419847328,-1.297709923664122,0.4427480916030534,-0.8785607196401799,0.046476761619190406,-0.43928035982008995,1322.3443223443223,97.03637559242291,31.45089297601953,
1770985026065.584,3.8260869565217392,-6.195652173913043,1.7282608695652173,1.7905445840813883,-9.685218432076601,-0.6319569120287253,4032.234432234432,1809.5238095238094,1.0,6.496407193271305,153.9312377210216,-6.687022900763359,-1.8625954198473282,0.16793893129770993,-0.8770614692653673,0.047976011994003,-0.4287856071964018,1334.065934065934,97.03637559242291,31.45089297601953,
1770985026085.1152,3.8369565217391304,-6.195652173913043,1.7608695652173914,1.8001196888090962,-9.632555356074207,-0.6056253740275284,4055.6776556776554,1835.8974358974358,1.0,6.496407193271305,153.9312377210216,-5.816793893129771,-2.931297709923664,-0.5954198473282443,-0.881559220389805,0.06896551724137931,-0.43628185907046474,1348.7179487179487,97.03352752638692,31.45089297601953,
1770985026104.6462,3.8152173913043477,-6.228260869565217,1.7065217391304348,1.7666068222621185,-9.67803710353082,-0.6080191502094554,4055.6776556776554,1843.2234432234432,1.0,6.491301961685236,154.05230043255997,-4.763358778625954,-4.0,-1.083969465648855,-0.8845577211394302,0.022488755622188904,-0.4287856071964018,1347.2527472527472,97.03637559242291,31.45089297601953,
1770985026124.1772,3.8152173913043477,-6.141304347826087,1.684782608695652,1.7881508078994615,-9.608617594254937,-0.6582884500299222,4054.212454212454,1850.5494505494505,1.0,6.48619673009917,154.17355371900825,-3.9847328244274807,-4.519083969465648,-1.816793893129771,-0.8785607196401799,0.05847076461769115,-0.4332833583208396,1335.5311355311355,97.03637559242291,31.45089297601953,
1770985026143.7085,3.8152173913043477,-6.119565217391304,1.684782608695652,1.8001196888090962,-9.55834829443447,-0.6654697785757031,4029.304029304029,1811.7216117216117,1.0,6.481091498513101,154.29499803072076,-3.7557251908396947,-5.083969465648854,-1.5114503816793892,-0.8755622188905547,0.04497751124437781,-0.4257871064467766,1326.7399267399267,97.03922366125771,31.45089297601953,
1770985026163.2395,3.8152173913043477,-6.119565217391304,1.7065217391304348,1.7666068222621185,-9.534410532615201,-0.6894075403949731,4055.6776556776554,1836.6300366300366,1.0,6.481091498513101,154.29499803072076,-3.6030534351145036,-4.625954198473282,-2.0610687022900764,-0.8800599700149925,0.047976011994003,-0.43178410794602695,1328.2051282051282,97.03352752638692,31.45089297601953,
1770985026182.7708,3.869565217391304,-6.08695652173913,1.7065217391304348,1.8264512268102933,-9.520047875523638,-0.6558946738479952,4029.304029304029,1808.058608058608,1.0,6.475986266927033,154.41663381947183,-3.969465648854962,-3.8931297709923665,-2.5343511450381677,-0.8770614692653673,0.043478260869565216,-0.43628185907046474,1338.4615384615383,97.03352752638692,31.45089297601953,
1770985026202.3018,3.902173913043478,-6.119565217391304,1.717391304347826,1.8456014362657092,-9.508078994614003,-0.6582884500299222,4055.6776556776554,1835.164835164835,1.0,6.475986266927033,154.41663381947183,-4.809160305343512,-2.6564885496183206,-2.717557251908397,-0.8860569715142429,0.034482758620689655,-0.43778110944527737,1342.1245421245421,97.03067946314974,31.45089297601953,
1770985026221.8328,3.891304347826087,-6.141304347826087,1.7065217391304348,1.8432076600837821,-9.584679832435667,-0.6702573309395571,4032.234432234432,1809.5238095238094,1.0,6.470881035340965,154.53846153846155,-5.374045801526718,-0.6870229007633587,-2.717557251908397,-0.8710644677661169,0.04047976011994003,-0.4302848575712144,1331.135531135531,97.02783140271136,31.45089297601953,
1770985026241.364,3.902173913043478,-6.119565217391304,1.6956521739130435,1.881508078994614,-9.563135846798325,-0.6678635547576302,4057.142857142857,1841.7582417582416,1.0,6.465775803754899,154.66048164232134,-5.3893129770992365,0.549618320610687,-3.465648854961832,-0.8785607196401799,0.037481259370314844,-0.43778110944527737,1297.4358974358975,97.03067946314974,31.45089297601953,
1770985026260.895,3.9239130434782608,-6.163043478260869,1.7065217391304348,1.886295631358468,-9.603830041891083,-0.6774386594853381,4055.6776556776554,1844.6886446886447,1.0,6.46067057216883,154.78269458711972,-4.7328244274809155,1.9694656488549618,-3.801526717557252,-0.8710644677661169,0.034482758620689655,-0.4257871064467766,1249.8168498168498,97.03637559242291,31.45089297601953,
1770985026280.426,3.9239130434782608,-6.173913043478261,1.717391304347826,1.869539198084979,-9.632555356074207,-0.6391382405745063,4054.212454212454,1850.5494505494505,1.0,6.46067057216883,154.78269458711972,-4.595419847328244,2.916030534351145,-4.091603053435114,-0.8860569715142429,0.04947526236881559,-0.4257871064467766,1206.5934065934066,97.03352752638692,31.45089297601953,
1770985026299.9573,3.9456521739130435,-6.1521739130434785,1.7391304347826086,1.9198084979054457,-9.594254937163376,-0.6295631358467983,4055.6776556776554,1847.6190476190475,1.0,6.455565340582762,154.90510083036773,-3.7709923664122136,2.2442748091603053,-6.015267175572519,-0.8740629685157421,0.046476761619190406,-0.43178410794602695,1175.0915750915751,97.03352752638692,31.45089297601953,
1770985026319.4883,4.010869565217392,-6.228260869565217,1.7934782608695652,1.9892280071813284,-9.666068222621185,-0.5960502692998204,4055.6776556776554,1846.153846153846,1.0,6.455565340582762,154.90510083036773,-3.5725190839694654,1.8473282442748091,-7.007633587786259,-0.8785607196401799,0.050974512743628186,-0.43178410794602695,1167.7655677655678,97.03352752638692,31.45089297601953,
1770985026339.0195,4.119565217391305,-6.33695652173913,1.7826086956521738,2.080191502094554,-9.785757031717534,-0.6128067025733094,4054.212454212454,1851.2820512820513,1.0,6.450460108996694,155.02770083102493,-3.145038167938931,0.6564885496183206,-8.320610687022901,-0.8845577211394302,0.047976011994003,-0.4332833583208396,1189.7435897435896,97.03067946314974,31.45089297601953,
1770985026358.5503,4.163043478260869,-6.3478260869565215,1.8369565217391304,2.106523040095751,-9.802513464991023,-0.5625374027528426,4055.6776556776554,1847.6190476190475,1.0,6.450460108996694,155.02770083102493,-1.4198473282442747,0.3511450381679389,-8.610687022900763,-0.8800599700149925,0.029985007496251874,-0.43178410794602695,1257.142857142857,97.03352752638692,31.45089297601953,
1770985026378.0815,4.217391304347826,-6.391304347826087,1.9021739130434783,2.1759425493716336,-9.826451226810294,-0.4955116696588869,4029.304029304029,1810.989010989011,1.0,6.445354877410627,155.15049504950494,-0.2595419847328244,0.38167938931297707,-9.725190839694656,-0.8830584707646176,0.03298350824587706,-0.44377811094452774,1367.7655677655678,97.03067946314974,31.45089297601953,
1770985026397.6128,4.239130434782608,-6.369565217391304,2.010869565217391,2.2214242968282467,-9.855176540993417,-0.3973668461998803,4055.6776556776554,1836.6300366300366,1.0,6.440249645824559,155.2734839476813,0.9618320610687022,0.42748091603053434,-10.183206106870228,-0.8845577211394302,0.02848575712143928,-0.4302848575712144,1536.9963369963368,97.03637559242291,31.45089297601953,
1770985026417.1438,4.239130434782608,-6.25,2.0760869565217392,2.264512268102932,-9.778575703171754,-0.29443447037701975,4055.6776556776554,1843.2234432234432,1.0,6.440249645824559,155.2734839476813,2.3664122137404577,0.2900763358778626,-11.068702290076336,-0.881559220389805,0.04497751124437781,-0.43628185907046474,1728.2051282051282,97.02783140271136,31.45089297601953,
1770985026436.675,4.25,-6.108695652173913,2.1847826086956523,2.264512268102932,-9.601436265709156,-0.1699581089168163,4052.7472527472523,1843.956043956044,1.0,6.440249645824559,155.2734839476813,3.1755725190839694,-0.015267175572519083,-12.15267175572519,-0.8770614692653673,0.050974512743628186,-0.44377811094452774,1884.249084249084,97.03067946314974,31.45089297601953,
1770985026456.206,4.25,-6.010869565217392,2.1630434782608696,2.252543387193297,-9.476959904248952,-0.10532615200478755,4055.6776556776554,1845.4212454212452,1.0,6.435144414238491,155.39666798889328,3.5877862595419847,-1.1908396946564885,-13.419847328244273,-0.889055472263868,0.05397301349325337,-0.43628185907046474,1936.263736263736,97.02783140271136,31.45089297601953,
1770985026475.737,4.239130434782608,-5.880434782608695,2.1956521739130435,2.2621184919210053,-9.326152004787552,-0.12208258527827648,4055.6776556776554,1846.153846153846,1.0,6.430039182652423,155.52004763795156,4.625954198473282,-2.4427480916030535,-14.534351145038167,-0.8785607196401799,0.06596701649175413,-0.4422788605697151,1882.7838827838827,97.03067946314974,31.45089297601953,
1770985026495.2683,4.25,-5.826086956521739,2.2065217391304346,2.252543387193297,-9.235188509874327,-0.10293237582286056,4054.212454212454,1851.2820512820513,1.0,6.430039182652423,155.52004763795156,5.068702290076335,-3.9389312977099236,-14.519083969465647,-0.8935532233883058,0.043478260869565216,-0.43928035982008995,1745.7875457875457,97.03352752638692,31.45089297601953,
1770985026514.7993,4.228260869565217,-5.815217391304348,2.2065217391304346,2.2022740873728304,-9.204069419509276,-0.12208258527827648,4055.6776556776554,1846.8864468864467,1.0,6.424933951066355,155.64362336114422,5.7251908396946565,-4.748091603053435,-13.893129770992365,-0.8845577211394302,0.034482758620689655,-0.4422788605697151,1565.5677655677655,97.03352752638692,31.45089297601953,
1770985026534.3306,4.260869565217392,-5.826086956521739,2.1956521739130435,2.2573309395571513,-9.242369838420107,-0.09575104727707959,4032.234432234432,1805.8608058608058,1.0,6.419828719480288,155.76739562624255,6.33587786259542,-4.6106870229007635,-13.297709923664122,-0.8830584707646176,0.03298350824587706,-0.45277361319340326,1406.5934065934066,97.03067946314974,31.45089297601953,
1770985026553.8616,4.358695652173913,-5.771739130434782,2.293478260869565,2.338719329742669,-9.172950329144225,-0.023937761819269897,4055.6776556776554,1834.4322344322343,1.0,6.419828719480288,155.76739562624255,8.16793893129771,-3.541984732824427,-12.442748091603052,-0.8875562218890555,0.04497751124437781,-0.43928035982008995,1284.2490842490843,97.03352752638692,31.45089297601953,
1770985026573.3926,4.380434782608695,-5.760869565217392,2.3043478260869565,2.3842010771992816,-9.158587672052663,0.019150209455415918,4055.6776556776554,1842.4908424908424,1.0,6.4147234878942205,155.89136490250695,9.114503816793892,-2.9923664122137406,-11.938931297709923,-0.8935532233883058,0.041979010494752625,-0.43928035982008995,1189.0109890109889,97.03922366125771,31.45089297601953,
1770985026592.9238,4.413043478260869,-5.728260869565217,2.3152173913043477,2.4320766008378216,-9.134649910233392,0.05026929982046679,4051.282051282051,1843.2234432234432,1.0,6.4147234878942205,155.89136490250695,9.908396946564885,-1.9083969465648853,-10.870229007633588,-0.8845577211394302,0.050974512743628186,-0.43778110944527737,1141.3919413919414,97.03352752638692,31.45089297601953,
1770985026612.4548,4.358695652173913,-5.630434782608695,2.3369565217391304,2.374625972471574,-9.031717534410532,0.03590664272890485,4055.6776556776554,1845.4212454212452,1.0,6.4096182563081525,156.01553166069294,10.793893129770993,-1.9236641221374045,-10.50381679389313,-0.8905547226386806,0.07196401799100449,-0.4512743628185907,1126.007326007326,97.03067946314974,31.45089297601953,
1770985026631.986,4.260869565217392,-5.543478260869565,2.3260869565217392,2.283662477558348,-8.93836026331538,0.059844404548174746,4055.6776556776554,1845.4212454212452,1.0,6.4096182563081525,156.01553166069294,11.022900763358779,-2.33587786259542,-10.51908396946565,-0.8995502248875562,0.043478260869565216,-0.4482758620689655,1146.5201465201465,97.02783140271136,31.45089297601953,
1770985026651.517,4.315217391304348,-5.532608695652174,2.369565217391304,2.319569120287253,-8.880909634949132,0.026331538001196888,4055.6776556776554,1846.153846153846,1.0,6.4096182563081525,156.01553166069294,10.885496183206106,-3.1755725190839694,-11.129770992366412,-0.8920539730134932,0.041979010494752625,-0.4452773613193403,1186.080586080586,97.03067946314974,31.45089297601953,
1770985026671.048,4.445652173913043,-5.6521739130434785,2.4565217391304346,2.4440454817474566,-9.019748653500898,0.18192698982645122,4055.6776556776554,1846.153846153846,1.0,6.4045130247220845,156.13989637305698,9.786259541984732,-3.9236641221374042,-10.6412213740458,-0.8875562218890555,0.05697151424287856,-0.4482758620689655,1232.967032967033,97.03067946314974,31.45089297601953,
1770985026690.579,4.521739130434782,-5.826086956521739,2.4239130434782608,2.539796529024536,-9.21603830041891,0.15320167564332735,4032.234432234432,1812.4542124542124,1.0,6.4045130247220845,156.13989637305698,8.610687022900763,-4.702290076335878,-9.465648854961831,-0.896551724137931,0.05397301349325337,-0.4512743628185907,1284.2490842490843,97.03637559242291,31.45089297601953,
1770985026710.1104,4.467391304347826,-5.9021739130434785,2.402173913043478,2.4943147815679234,-9.302214242968283,0.15080789946140036,4057.142857142857,1843.2234432234432,1.0,6.4045130247220845,156.13989637305698,7.938931297709924,-3.7709923664122136,-8.366412213740457,-0.8860569715142429,0.05697151424287856,-0.4497751124437781,1320.14652014652,97.03352752638692,31.45089297601953,
1770985026729.6414,4.510869565217392,-5.9021739130434785,2.4130434782608696,2.532615200478755,-9.314183123877918,0.13405146618791142,4057.142857142857,1851.2820512820513,1.0,6.399407793136017,156.26445951336257,8.50381679389313,-3.5114503816793894,-8.305343511450381,-0.8995502248875562,0.04947526236881559,-0.4512743628185907,1342.8571428571427,97.03637559242291,31.45089297601953,
1770985026749.1726,4.565217391304348,-5.945652173913043,2.369565217391304,2.5924596050269297,-9.326152004787552,0.10053859964093358,4051.282051282051,1845.4212454212452,1.0,6.399407793136017,156.26445951336257,8.564885496183205,-4.702290076335878,-8.763358778625953,-0.9010494752623688,0.07946026986506746,-0.4542728635682159,1369.9633699633698,97.03067946314974,31.45089297601953,
1770985026768.7036,4.576086956521739,-6.0,2.4239130434782608,2.597247157390784,-9.3836026331538,0.07660083782166367,4027.8388278388275,1809.5238095238094,1.0,6.399407793136017,156.26445951336257,8.748091603053435,-6.595419847328244,-9.435114503816793,-0.8875562218890555,0.04497751124437781,-0.46026986506746626,1389.7435897435896,97.03352752638692,31.45089297601953,
1770985026788.2349,4.6521739130434785,-6.1521739130434785,2.391304347826087,2.6618791143028124,-9.524835427887492,0.09575104727707959,4055.6776556776554,1835.8974358974358,1.0,6.399407793136017,156.26445951336257,8.50381679389313,-8.13740458015267,-9.297709923664122,-0.8980509745127436,0.06596701649175413,-0.4677661169415292,1400.7326007326005,97.03352752638692,31.45089297601953,
1770985026807.766,4.619565217391305,-6.054347826086956,2.3369565217391304,2.6929982046678633,-9.546379413524836,0.06941950927588271,4029.304029304029,1808.058608058608,1.0,6.399407793136017,156.26445951336257,9.358778625954198,-10.061068702290076,-9.98473282442748,-0.8995502248875562,0.046476761619190406,-0.45577211394302847,1391.9413919413919,97.03193846182639,31.440842946083286,
1770985026827.2969,4.6521739130434785,-5.956521739130435,2.293478260869565,2.6786355475763015,-9.436265709156194,0.009575104727707959,4055.6776556776554,1835.164835164835,1.0,6.399407793136017,156.26445951336257,9.709923664122137,-11.465648854961831,-11.740458015267174,-0.896551724137931,0.05997001499250375,-0.4542728635682159,1368.4981684981683,97.03193846182639,31.440842946083286,
1770985026846.828,4.673913043478261,-5.891304347826087,2.293478260869565,2.7121484141232792,-9.340514661879114,-0.011968880909634948,4032.234432234432,1809.5238095238094,1.0,6.394302561549949,156.3892215568862,8.213740458015266,-15.022900763358779,-14.045801526717558,-0.896551724137931,0.047976011994003,-0.4662668665667166,1348.7179487179487,97.03193846182639,31.440842946083286,
1770985026866.3591,4.717391304347826,-5.9021739130434785,2.3043478260869565,2.731298623578695,-9.292639138240574,-0.016756433273488927,4055.6776556776554,1835.8974358974358,1.0,6.399407793136017,156.26445951336257,6.381679389312977,-16.35114503816794,-14.15267175572519,-0.8950524737631184,0.05697151424287856,-0.4587706146926537,1342.1245421245421,97.02624243069765,31.440842946083286,
1770985026885.8904,4.804347826086956,-6.108695652173913,2.3043478260869565,2.805505685218432,-9.45541591861161,0.019150209455415918,4055.6776556776554,1843.2234432234432,1.0,6.394302561549949,156.3892215568862,5.236641221374046,-17.053435114503817,-14.519083969465647,-0.9010494752623688,0.05547226386806597,-0.4662668665667166,1347.2527472527472,97.02909044486265,31.440842946083286,
1770985026905.4214,4.815217391304348,-6.141304347826087,2.260869565217391,2.8797127468581687,-9.587073608617594,-0.02872531418312388,4049.8168498168498,1836.6300366300366,1.0,6.394302561549949,156.3892215568862,4.763358778625954,-16.580152671755723,-14.763358778625953,-0.8950524737631184,0.05397301349325337,-0.46926536731634183,1361.904761904762,97.02624243069765,31.440842946083286,
1770985026924.9524,4.83695652173913,-6.141304347826087,2.2065217391304346,2.8868940754039496,-9.620586475164572,-0.10293237582286056,4055.6776556776554,1843.2234432234432,1.0,6.399407793136017,156.26445951336257,4.458015267175572,-15.221374045801527,-14.335877862595419,-0.896551724137931,0.08095952023988005,-0.46026986506746626,1371.4285714285713,97.03763450415,31.440842946083286,
1770985026944.4836,4.869565217391305,-6.206521739130435,2.1739130434782608,2.9323758228605623,-9.632555356074207,-0.1364452423698384,4057.142857142857,1851.2820512820513,1.0,6.399407793136017,156.26445951336257,4.015267175572519,-14.213740458015266,-13.374045801526718,-0.8950524737631184,0.047976011994003,-0.46176911544227883,1369.230769230769,97.03193846182639,31.440842946083286,
1770985026964.0146,4.869565217391305,-6.217391304347826,2.141304347826087,2.8964691801316578,-9.697187312986236,-0.17474566128067026,4032.234432234432,1813.9194139194137,1.0,6.399407793136017,156.26445951336257,4.442748091603053,-13.374045801526718,-12.931297709923664,-0.8995502248875562,0.06746626686656672,-0.4677661169415292,1383.8827838827838,97.02909044486265,31.440842946083286,
1770985026983.546,4.8478260869565215,-6.08695652173913,2.141304347826087,2.9275882704967087,-9.579892280071814,-0.19150209455415917,4055.6776556776554,1837.3626373626373,1.0,6.4045130247220845,156.13989637305698,4.427480916030534,-12.931297709923664,-13.893129770992365,-0.8980509745127436,0.06146926536731634,-0.4482758620689655,1446.153846153846,97.03193846182639,31.440842946083286,
1770985027003.077,4.782608695652174,-5.956521739130435,2.119565217391304,2.8821065230400955,-9.421903052064632,-0.19389587073608616,4032.234432234432,1810.2564102564102,1.0,6.4045130247220845,156.13989637305698,3.8625954198473282,-12.335877862595419,-14.839694656488549,-0.9010494752623688,0.05847076461769115,-0.45277361319340326,1553.8461538461538,97.03478648158885,31.440842946083286,
1770985027022.608,4.826086956521739,-5.858695652173913,2.130434782608696,2.872531418312388,-9.299820466786356,-0.1867145421903052,4055.6776556776554,1835.8974358974358,1.0,6.4096182563081525,156.01553166069294,2.595419847328244,-12.167938931297709,-15.526717557251908,-0.9010494752623688,0.05697151424287856,-0.4677661169415292,1697.4358974358972,97.03193846182639,31.440842946083286,
1770985027042.1392,4.826086956521739,-5.804347826086956,2.1739130434782608,2.8916816277678037,-9.20885697187313,-0.1891083183722322,4055.6776556776554,1843.2234432234432,1.0,6.4147234878942205,155.89136490250695,1.1603053435114503,-12.213740458015266,-16.412213740458014,-0.8995502248875562,0.08245877061469264,-0.46026986506746626,1829.3040293040292,97.03763450415,31.440842946083286,
1770985027061.6702,4.858695652173913,-5.760869565217392,2.1630434782608696,2.9180131657690005,-9.165769000598443,-0.17235188509874327,4048.3516483516482,1842.4908424908424,1.0,6.4147234878942205,155.89136490250695,-1.0076335877862594,-11.694656488549619,-17.297709923664122,-0.8935532233883058,0.07496251874062969,-0.46926536731634183,1924.5421245421244,97.03478648158885,31.440842946083286,
1770985027081.2014,4.8478260869565215,-5.804347826086956,2.130434782608696,2.9251944943147814,-9.165769000598443,-0.19389587073608616,4055.6776556776554,1844.6886446886447,1.0,6.419828719480288,155.76739562624255,-2.7938931297709924,-10.51908396946565,-17.572519083969464,-0.8980509745127436,0.05547226386806597,-0.45577211394302847,1965.5677655677655,97.03478648158885,31.440842946083286,
1770985027100.7324,4.83695652173913,-5.663043478260869,2.119565217391304,2.889287851585877,-9.08916816277678,-0.23937761819269898,4055.6776556776554,1845.4212454212452,1.0,6.424933951066355,155.64362336114422,-3.801526717557252,-8.702290076335878,-17.832061068702288,-0.9055472263868065,0.05547226386806597,-0.45277361319340326,1936.263736263736,97.03193846182639,31.440842946083286,
1770985027120.2634,4.8478260869565215,-5.58695652173913,2.141304347826087,2.9084380610412928,-8.98623578695392,-0.22980251346499103,4032.234432234432,1812.4542124542124,1.0,6.430039182652423,155.52004763795156,-5.32824427480916,-6.595419847328244,-17.175572519083968,-0.9085457271364318,0.06296851574212893,-0.46926536731634183,1858.6080586080584,97.03478648158885,31.440842946083286,
1770985027139.795,4.83695652173913,-5.521739130434782,2.1630434782608696,2.8868940754039496,-8.885697187312987,-0.18192698982645122,4052.7472527472523,1835.164835164835,1.0,6.430039182652423,155.52004763795156,-6.870229007633587,-4.152671755725191,-15.648854961832061,-0.9070464767616192,0.0704647676161919,-0.46176911544227883,1753.113553113553,97.02909044486265,31.440842946083286,
1770985027159.3257,4.804347826086956,-5.521739130434782,2.130434782608696,2.8701376421304605,-8.876122082585278,-0.19868342309994014,4032.234432234432,1809.5238095238094,1.0,6.435144414238491,155.39666798889328,-8.931297709923664,-1.6946564885496183,-13.694656488549617,-0.8995502248875562,0.08095952023988005,-0.46476761619190404,1628.5714285714284,97.02909044486265,31.440842946083286,
1770985027178.8567,4.804347826086956,-5.532608695652174,2.108695652173913,2.8509874326750446,-8.89048473967684,-0.2106523040095751,4055.6776556776554,1835.164835164835,1.0,6.440249645824559,155.2734839476813,-10.916030534351144,0.38167938931297707,-10.50381679389313,-0.9085457271364318,0.050974512743628186,-0.4662668665667166,1504.7619047619046,97.02909044486265,31.440842946083286,
1770985027198.388,4.815217391304348,-5.532608695652174,2.141304347826087,2.889287851585877,-8.892878515858767,-0.2106523040095751,4055.6776556776554,1843.2234432234432,1.0,6.450460108996694,155.02770083102493,-12.183206106870228,2.33587786259542,-7.358778625954198,-0.9145427286356821,0.07646176911544228,-0.45727136431784104,1404.3956043956043,97.03763450415,31.440842946083286,
1770985027217.919,4.804347826086956,-5.619565217391304,2.141304347826087,2.8677438659485337,-8.943147815679234,-0.20586475164572113,4049.8168498168498,1836.6300366300366,1.0,6.450460108996694,155.02770083102493,-14.167938931297709,4.106870229007633,-3.7557251908396947,-0.9085457271364318,0.047976011994003,-0.4542728635682159,1339.194139194139,97.03763450415,31.440842946083286,
1770985027237.4502,4.83695652173913,-5.739130434782608,2.119565217391304,2.8629563135846796,-9.084380610412927,-0.20825852782764812,4027.8388278388275,1807.3260073260071,1.0,6.455565340582762,154.90510083036773,-14.839694656488549,4.5038167938931295,-0.015267175572519083,-0.9085457271364318,0.05547226386806597,-0.45577211394302847,1317.9487179487178,97.02909044486265,31.440842946083286,
1770985027256.9812,4.858695652173913,-5.793478260869565,2.119565217391304,2.8964691801316578,-9.180131657690005,-0.22262118491921004,4055.6776556776554,1835.164835164835,1.0,6.46067057216883,154.78269458711972,-15.81679389312977,5.129770992366412,3.5877862595419847,-0.9160419790104948,0.06896551724137931,-0.46026986506746626,1334.065934065934,97.02624243069765,31.440842946083286,
1770985027276.5122,4.891304347826087,-5.83695652173913,2.130434782608696,2.9204069419509273,-9.206463195691203,-0.20586475164572113,4055.6776556776554,1843.2234432234432,1.0,6.465775803754899,154.66048164232134,-17.068702290076335,5.190839694656488,6.793893129770992,-0.9115442278860569,0.050974512743628186,-0.45277361319340326,1358.974358974359,97.03193846182639,31.440842946083286,
1770985027296.0437,4.913043478260869,-5.891304347826087,2.119565217391304,2.9611011370436864,-9.254338719329743,-0.17953321364452424,4052.7472527472523,1843.956043956044,1.0,6.470881035340965,154.53846153846155,-18.15267175572519,5.419847328244274,9.923664122137405,-0.9070464767616192,0.05697151424287856,-0.45577211394302847,1386.8131868131868,97.03193846182639,31.440842946083286,
1770985027315.5745,5.0,-6.043478260869565,2.2065217391304346,3.01376421304608,-9.405146618791143,-0.12208258527827648,4032.234432234432,1812.4542124542124,1.0,6.475986266927033,154.41663381947183,-19.404580152671755,5.480916030534351,12.381679389312977,-0.9085457271364318,0.050974512743628186,-0.45577211394302847,1425.6410256410256,97.03193846182639,31.440842946083286,
1770985027335.1057,5.054347826086956,-6.130434782608695,2.2065217391304346,3.097546379413525,-9.543985637342908,-0.11968880909634949,4029.304029304029,1802.197802197802,1.0,6.481091498513101,154.29499803072076,-19.419847328244273,5.984732824427481,14.534351145038167,-0.9040479760119939,0.043478260869565216,-0.4482758620689655,1465.9340659340658,97.03478648158885,31.440842946083286,
1770985027354.6367,5.065217391304348,-6.184782608695652,2.217391304347826,3.1358467983243568,-9.60622381807301,-0.11490125673249552,4055.6776556776554,1833.6996336996335,1.0,6.491301961685236,154.05230043255997,-19.603053435114504,6.595419847328244,15.282442748091603,-0.9070464767616192,0.04947526236881559,-0.4542728635682159,1495.970695970696,97.02624243069765,31.440842946083286,
1770985027374.1675,5.065217391304348,-6.206521739130435,2.1956521739130435,3.1478156792339917,-9.656493117893477,-0.12447636146020347,4049.8168498168498,1834.4322344322343,1.0,6.491301961685236,154.05230043255997,-18.916030534351144,7.480916030534351,15.908396946564885,-0.9010494752623688,0.05847076461769115,-0.4467766116941529,1499.6336996336995,97.03478648158885,31.440842946083286,
1770985027393.699,5.08695652173913,-6.239130434782608,2.25,3.1430281268701377,-9.67803710353082,-0.07660083782166367,4057.142857142857,1849.084249084249,1.0,6.501512424857372,153.81036513545348,-19.404580152671755,8.213740458015266,15.48091603053435,-0.9025487256371814,0.05847076461769115,-0.4467766116941529,1476.1904761904761,97.02624243069765,31.440842946083286,
1770985027413.23,5.141304347826087,-6.271739130434782,2.3152173913043477,3.202872531418312,-9.745062836624776,-0.045481747456612806,4055.6776556776554,1846.8864468864467,1.0,6.5066176564434395,153.68968222832484,-20.061068702290076,9.908396946564885,14.839694656488549,-0.9040479760119939,0.07946026986506746,-0.4542728635682159,1449.084249084249,97.03193846182639,31.440842946083286,
1770985027432.7612,5.163043478260869,-6.293478260869565,2.25,3.269898264512268,-9.776181926989826,-0.040694195092758824,4054.212454212454,1851.2820512820513,1.0,6.5117228880295075,153.56918855350844,-17.877862595419845,12.0,13.435114503816793,-0.9010494752623688,0.06296851574212893,-0.4407796101949025,1427.8388278388277,97.03478648158885,31.440842946083286,
1770985027452.2922,5.130434782608695,-6.206521739130435,2.3152173913043477,3.2172351885098744,-9.675643327348892,0.0,4051.282051282051,1845.4212454212452,1.0,6.5168281196155755,153.44888366627498,-16.870229007633586,14.65648854961832,12.274809160305344,-0.9055472263868065,0.07496251874062969,-0.4422788605697151,1399.2673992673992,97.03193846182639,31.440842946083286,
1770985027471.8232,5.032608695652174,-6.293478260869565,2.282608695652174,3.1430281268701377,-9.71873129862358,-0.02872531418312388,4032.234432234432,1812.4542124542124,1.0,6.5219333512016435,153.32876712328766,-17.297709923664122,15.48091603053435,11.572519083969466,-0.9010494752623688,0.07946026986506746,-0.44377811094452774,1368.4981684981683,97.03193846182639,31.440842946083286,
1770985027491.3545,5.054347826086956,-6.380434782608695,2.25,3.1597845601436263,-9.85278276481149,-0.031119090365050867,4029.304029304029,1800.7326007326005,1.0,6.527038582787711,153.2088384825968,-14.99236641221374,15.84732824427481,9.908396946564885,-0.9010494752623688,0.06896551724137931,-0.46026986506746626,1360.4395604395604,97.03193846182639,31.440842946083286,
1770985027510.8855,5.032608695652174,-6.293478260869565,2.2391304347826084,3.128665469778576,-9.795332136445243,-0.047875523638539794,4055.6776556776554,1833.6996336996335,1.0,6.53214381437378,153.08909730363422,-12.580152671755725,16.519083969465647,8.320610687022901,-0.8980509745127436,0.07196401799100449,-0.4512743628185907,1353.8461538461538,97.03763450415,31.440842946083286,
1770985027530.4167,4.978260869565217,-6.206521739130435,2.25,3.0712148414123277,-9.673249551166966,-0.033512866546977854,4048.3516483516482,1845.4212454212452,1.0,6.537249045959848,152.96954314720813,-10.51908396946565,16.045801526717558,6.0,-0.9010494752623688,0.05997001499250375,-0.43478260869565216,1349.4505494505493,97.02624243069765,31.440842946083286,
1770985027549.9478,4.989130434782608,-6.184782608695652,2.25,3.066427289048474,-9.6229802513465,-0.052663076002393776,4027.8388278388275,1809.5238095238094,1.0,6.547459509131984,152.73099415204678,-8.961832061068701,15.374045801526718,4.152671755725191,-0.8935532233883058,0.07196401799100449,-0.45277361319340326,1359.7069597069597,97.02909044486265,31.440842946083286,
1770985027569.4788,4.967391304347826,-6.119565217391304,2.2717391304347827,3.054458408138839,-9.546379413524836,-0.045481747456612806,4055.6776556776554,1835.8974358974358,1.0,6.552564740718051,152.61199844176082,-7.343511450381679,14.290076335877862,1.8473282442748091,-0.8935532233883058,0.05547226386806597,-0.45727136431784104,1393.4065934065934,97.02624243069765,31.440842946083286,
1770985027589.01,4.913043478260869,-6.021739130434782,2.217391304347826,2.975463794135248,-9.453022142429683,-0.09575104727707959,4041.0256410256407,1825.6410256410254,1.0,6.557669972304119,152.4931880108992,-4.961832061068702,13.007633587786259,-0.366412213740458,-0.9100449775112444,0.07946026986506746,-0.4587706146926537,1472.5274725274724,97.0433305576685,31.440842946083286,
1770985027608.541,4.858695652173913,-5.880434782608695,2.2391304347826084,2.9419509275882705,-9.393177737881508,-0.08856971873129862,4051.282051282051,1838.095238095238,1.0,6.562775203890187,152.37456242707117,-3.6488549618320607,10.82442748091603,-2.6259541984732824,-0.9010494752623688,0.07496251874062969,-0.46326836581709147,1596.3369963369962,97.03193846182639,31.440842946083286,
1770985027628.072,4.8478260869565215,-5.945652173913043,2.1847826086956523,2.889287851585877,-9.338120885697187,-0.10771992818671454,4032.234432234432,1810.2564102564102,1.0,6.572985667062321,152.13786407766992,-3.633587786259542,9.053435114503817,-3.969465648854962,-0.9025487256371814,0.07346326836581708,-0.45727136431784104,1759.7069597069597,97.03193846182639,31.440842946083286,
1770985027647.6033,4.826086956521739,-6.032608695652174,2.0978260869565215,2.9108318372232196,-9.457809694793536,-0.1891083183722322,4055.6776556776554,1836.6300366300366,1.0,6.57809089864839,152.0197904540163,-2.229007633587786,7.022900763358779,-4.961832061068702,-0.9040479760119939,0.06446776611694152,-0.4512743628185907,1918.6813186813185,97.03193846182639,31.440842946083286,
1770985027667.1345,4.83695652173913,-5.989130434782608,2.0869565217391304,2.884500299222023,-9.448234590065828,-0.21783363255535607,4054.212454212454,1848.3516483516482,1.0,6.583196130234457,151.9018999612253,-0.6717557251908397,5.603053435114504,-6.595419847328244,-0.9025487256371814,0.07346326836581708,-0.45577211394302847,2035.8974358974358,97.02624243069765,31.440842946083286,
1770985027686.6655,4.782608695652174,-5.913043478260869,2.0,2.834230999401556,-9.350089766606821,-0.2992220227408737,4048.3516483516482,1843.956043956044,1.0,6.593406593406592,151.66666666666669,-0.22900763358778625,4.6106870229007635,-7.770992366412213,-0.9160419790104948,0.08095952023988005,-0.4482758620689655,2098.901098901099,97.03193846182639,31.440842946083286,
1770985027706.1963,4.826086956521739,-5.880434782608695,1.9891304347826086,2.846199880311191,-9.297426690604429,-0.34470377019748655,4055.6776556776554,1845.4212454212452,1.0,6.593406593406592,151.66666666666669,-0.564885496183206,4.33587786259542,-8.15267175572519,-0.9055472263868065,0.05547226386806597,-0.4482758620689655,2072.5274725274726,97.03193846182639,31.440842946083286,
1770985027725.7275,4.804347826086956,-5.858695652173913,2.0,2.8677438659485337,-9.285457809694794,-0.33512866546977854,4055.6776556776554,1845.4212454212452,1.0,6.59851182499266,151.54932301740814,-1.0076335877862594,4.870229007633587,-9.236641221374045,-0.9055472263868065,0.05397301349325337,-0.4497751124437781,1986.8131868131866,97.03193846182639,31.440842946083286,
1770985027745.2588,4.739130434782608,-5.858695652173913,1.891304347826087,2.812687013764213,-9.295032914422501,-0.3901855176540993,4055.6776556776554,1845.4212454212452,1.0,6.608722288164796,151.3151796060255,-0.8396946564885496,5.297709923664122,-9.66412213740458,-0.9010494752623688,0.04947526236881559,-0.4542728635682159,1865.201465201465,97.03193846182639,31.440842946083286,
1770985027764.7898,4.673913043478261,-5.760869565217392,1.826086956521739,2.736086175942549,-9.194494314781569,-0.5122681029323758,4054.212454212454,1850.5494505494505,1.0,6.613827519750864,151.19837900424548,-0.5801526717557252,5.603053435114504,-10.580152671755725,-0.9100449775112444,0.06296851574212893,-0.4497751124437781,1715.7509157509157,97.03763450415,31.440842946083286,
1770985027784.321,4.641304347826087,-5.728260869565217,1.8043478260869565,2.7001795332136447,-9.103530819868341,-0.5697187312986236,4030.7692307692305,1818.3150183150183,1.0,6.624037982923,150.96531791907515,-1.3740458015267174,4.641221374045801,-11.618320610687022,-0.9130434782608695,0.06296851574212893,-0.45727136431784104,1559.7069597069597,97.03193846182639,31.440842946083286,
1770985027803.852,4.630434782608695,-5.858695652173913,1.8043478260869565,2.6642728904847397,-9.16816277678037,-0.5816876122082585,4027.8388278388275,1801.4652014652013,1.0,6.629143214509068,150.8490566037736,-2.1221374045801524,3.801526717557252,-11.83206106870229,-0.9115442278860569,0.06746626686656672,-0.4587706146926537,1418.3150183150183,97.03193846182639,31.440842946083286,
1770985027823.383,4.641304347826087,-5.934782608695652,1.75,2.6834230999401556,-9.340514661879114,-0.5984440454817475,4054.212454212454,1838.8278388278386,1.0,6.629143214509068,150.8490566037736,-3.3740458015267176,3.2061068702290076,-12.335877862595419,-0.9055472263868065,0.08095952023988005,-0.46326836581709147,1325.2747252747251,97.03193846182639,31.440842946083286,
1770985027842.9143,4.630434782608695,-6.021739130434782,1.7608695652173914,2.6403351286654697,-9.43147815679234,-0.5960502692998204,4046.8864468864467,1834.4322344322343,1.0,6.6393536776812025,150.6170703575548,-3.9389312977099236,2.8091603053435112,-11.83206106870229,-0.9175412293853074,0.05397301349325337,-0.4542728635682159,1286.4468864468863,97.03193846182639,31.440842946083286,
1770985027862.4453,4.608695652173913,-6.0978260869565215,1.8152173913043477,2.637941352483543,-9.508078994614003,-0.5649311789347696,4026.373626373626,1799.9999999999998,1.0,6.6444589092672715,150.50134460238186,-5.206106870229007,3.8625954198473282,-10.0,-0.9190404797601199,0.08395802098950525,-0.46476761619190404,1292.3076923076922,97.03763450415,31.440842946083286,
1770985027881.9766,4.5978260869565215,-6.206521739130435,1.7717391304347825,2.637941352483543,-9.649311789347696,-0.5816876122082585,4054.212454212454,1838.8278388278386,1.0,6.6495641408533395,150.38579654510556,-5.770992366412213,4.244274809160305,-8.381679389312977,-0.9130434782608695,0.05247376311844078,-0.4542728635682159,1325.2747252747251,97.03193846182639,31.440842946083286,
1770985027901.5076,4.6521739130434785,-6.1521739130434785,1.7717391304347825,2.637941352483543,-9.618192698982645,-0.5960502692998204,4052.7472527472523,1843.2234432234432,1.0,6.6495641408533395,150.38579654510556,-4.900763358778626,5.114503816793893,-6.381679389312977,-0.9205397301349325,0.05697151424287856,-0.4662668665667166,1375.8241758241757,97.03478648158885,31.440842946083286,
1770985027921.0386,4.630434782608695,-5.989130434782608,1.8152173913043477,2.6642728904847397,-9.433871932974267,-0.5721125074805505,4049.8168498168498,1836.6300366300366,1.0,6.659774604025475,150.15523188961288,-4.564885496183206,6.625954198473282,-4.854961832061068,-0.9100449775112444,0.06596701649175413,-0.45727136431784104,1428.5714285714284,97.03193846182639,31.440842946083286,
1770985027940.5698,4.6521739130434785,-5.923913043478261,1.9456521739130435,2.6834230999401556,-9.33572710951526,-0.45481747456612803,4030.7692307692305,1814.6520146520145,1.0,6.664879835611543,150.0402144772118,-5.038167938931298,8.351145038167939,-2.8702290076335877,-0.9115442278860569,0.06296851574212893,-0.46326836581709147,1470.3296703296703,97.03193846182639,31.440842946083286,
1770985027960.1008,4.673913043478261,-5.923913043478261,2.0,2.7073608617594256,-9.33572710951526,-0.3566726511071215,4029.304029304029,1802.197802197802,1.0,6.66998506719761,149.92537313432837,-6.244274809160305,10.412213740458014,-1.2061068702290076,-0.9145427286356821,0.07946026986506746,-0.46026986506746626,1491.5750915750914,97.03193846182639,31.440842946083286,
1770985027979.632,4.663043478260869,-5.9021739130434785,1.9891304347826086,2.6953919808497906,-9.321364452423698,-0.3255535607420706,4055.6776556776554,1833.6996336996335,1.0,6.675090298783678,149.81070745697897,-6.549618320610687,12.381679389312977,0.5343511450381679,-0.9130434782608695,0.08845577211394302,-0.46326836581709147,1490.10989010989,97.03193846182639,31.440842946083286,
1770985027999.163,4.608695652173913,-5.880434782608695,2.010869565217391,2.649910233393178,-9.273488928785158,-0.3016157989228007,4046.8864468864467,1832.9670329670328,1.0,6.680195530369747,149.696217042415,-6.687022900763359,13.282442748091603,1.2671755725190839,-0.9145427286356821,0.07946026986506746,-0.45727136431784104,1474.7252747252746,97.03193846182639,31.440842946083286,
1770985028018.694,4.58695652173913,-5.869565217391304,2.0217391304347827,2.6355475763016156,-9.266307600239378,-0.29204069419509276,4027.8388278388275,1805.8608058608058,1.0,6.685300761955814,149.581901489118,-6.6106870229007635,13.541984732824426,2.2748091603053435,-0.9190404797601199,0.04497751124437781,-0.46176911544227883,1451.2820512820513,97.03193846182639,31.440842946083286,
1770985028038.225,4.630434782608695,-5.923913043478261,2.0652173913043477,2.649910233393178,-9.31178934769599,-0.2704967085577498,4055.6776556776554,1834.4322344322343,1.0,6.690405993541881,149.46776039679514,-5.6183206106870225,12.351145038167939,2.8854961832061066,-0.9220389805097451,0.06146926536731634,-0.4662668665667166,1422.7106227106226,97.04048252950989,31.440842946083286,
1770985028057.7563,4.565217391304348,-5.967391304347826,2.043478260869565,2.625972471573908,-9.364452423698385,-0.26570915619389585,4046.8864468864467,1832.9670329670328,1.0,6.69551122512795,149.3537933663744,-5.007633587786259,9.66412213740458,2.931297709923664,-0.9145427286356821,0.06296851574212893,-0.4677661169415292,1382.4175824175823,97.02909044486265,31.440842946083286,
1770985028077.2874,4.543478260869565,-5.956521739130435,2.0217391304347827,2.585278276481149,-9.378815080789947,-0.29443447037701975,4049.8168498168498,1833.6996336996335,1.0,6.700616456714018,149.24,-3.0839694656488548,7.2824427480916025,2.8702290076335877,-0.9160419790104948,0.07196401799100449,-0.472263868065967,1345.054945054945,97.03193846182639,31.440842946083286,
1770985028096.8186,4.58695652173913,-5.956521739130435,1.9891304347826086,2.587672052663076,-9.364452423698385,-0.3518850987432675,4033.6996336996335,1815.3846153846152,1.0,6.700616456714018,149.24,-2.1221374045801524,4.229007633587786,1.984732824427481,-0.9190404797601199,0.06146926536731634,-0.45727136431784104,1319.4139194139193,97.02909044486265,31.440842946083286,
1770985028116.3496,4.619565217391305,-5.8478260869565215,1.9891304347826086,2.6403351286654697,-9.316576900059845,-0.3207660083782166,4057.142857142857,1843.2234432234432,1.0,6.710826919886152,149.01293267402056,-1.2519083969465647,2.748091603053435,1.3893129770992365,-0.9160419790104948,0.07796101949025487,-0.46476761619190404,1304.7619047619046,97.02624243069765,31.440842946083286,
1770985028135.8809,4.6521739130434785,-5.739130434782608,2.0,2.6858168761220824,-9.175344105326152,-0.34470377019748655,4055.6776556776554,1844.6886446886447,1.0,6.715932151472221,148.89965792474345,-0.3511450381679389,1.7862595419847327,1.3282442748091603,-0.9175412293853074,0.08545727136431784,-0.4752623688155922,1287.179487179487,97.03478648158885,31.440842946083286,
1770985028155.412,4.684782608695652,-5.6521739130434785,2.0,2.7073608617594256,-9.060442848593656,-0.33512866546977854,4046.8864468864467,1836.6300366300366,1.0,6.715932151472221,148.89965792474345,-0.7938931297709924,1.5725190839694656,0.7786259541984732,-0.9145427286356821,0.06446776611694152,-0.48125937031484256,1282.7838827838827,97.02909044486265,31.440842946083286,
1770985028174.9429,4.717391304347826,-5.684782608695652,1.9456521739130435,2.750448833034111,-9.03411131059246,-0.3686415320167564,4027.8388278388275,1806.5934065934064,1.0,6.721037383058288,148.78655526015953,-1.4351145038167938,2.198473282442748,1.3282442748091603,-0.9175412293853074,0.05847076461769115,-0.4677661169415292,1305.4945054945053,97.02624243069765,31.440842946083286,
1770985028194.474,4.695652173913043,-5.576086956521739,1.9456521739130435,2.7384799521244765,-8.983842010771992,-0.3710353081986834,4055.6776556776554,1834.4322344322343,1.0,6.726142614644356,148.67362428842506,-1.297709923664122,2.9618320610687023,1.3129770992366412,-0.9190404797601199,0.06296851574212893,-0.46926536731634183,1376.5567765567764,97.02909044486265,31.440842946083286,
1770985028214.0051,4.673913043478261,-5.5,1.9782608695652173,2.7169359664871333,-8.888090963494912,-0.36146020347097546,4046.8864468864467,1832.9670329670328,1.0,6.731247846230423,148.56086461888512,-1.2366412213740459,3.2213740458015265,1.7404580152671756,-0.9160419790104948,0.05847076461769115,-0.4677661169415292,1504.7619047619046,97.03478648158885,31.440842946083286,
1770985028233.5364,4.695652173913043,-5.5,1.967391304347826,2.7265110712148415,-8.854578096947936,-0.3686415320167564,4055.6776556776554,1842.4908424908424,1.0,6.736353077816491,148.44827586206898,-1.9389312977099236,2.8854961832061066,2.8702290076335877,-0.9145427286356821,0.08245877061469264,-0.472263868065967,1675.4578754578754,97.02909044486265,31.440842946083286,
1770985028253.0674,4.706521739130435,-5.641304347826087,1.9565217391304348,2.762417713943746,-8.971873129862358,-0.3877917414721723,4035.164835164835,1819.047619047619,1.0,6.736353077816491,148.44827586206898,-2.8091603053435112,2.213740458015267,3.5267175572519083,-0.9145427286356821,0.05697151424287856,-0.46326836581709147,1852.7472527472526,97.02624243069765,31.440842946083286,
1770985028272.5984,4.684782608695652,-5.782608695652174,2.0,2.750448833034111,-9.16098144823459,-0.36146020347097546,4029.304029304029,1802.9304029304028,1.0,6.741458309402559,148.33585762968573,-3.2519083969465647,0.8702290076335878,4.1679389312977095,-0.9160419790104948,0.050974512743628186,-0.4677661169415292,1996.3369963369962,97.03193846182639,31.440842946083286,
1770985028292.1296,4.695652173913043,-5.9021739130434785,1.9021739130434783,2.7049670855774983,-9.307001795332136,-0.41412327947336924,4055.6776556776554,1833.6996336996335,1.0,6.746563540988627,148.22360953461975,-3.0076335877862594,-1.2519083969465647,4.442748091603053,-0.9130434782608695,0.07346326836581708,-0.46476761619190404,2075.457875457875,97.02909044486265,31.440842946083286,
1770985028311.6606,4.717391304347826,-6.010869565217392,1.9130434782608696,2.7384799521244765,-9.41472172351885,-0.457211250748055,4046.8864468864467,1832.9670329670328,1.0,6.751668772574696,148.11153119092629,-2.7022900763358777,-4.0,3.7557251908396947,-0.9100449775112444,0.06446776611694152,-0.4707646176911544,2068.8644688644686,97.03193846182639,31.440842946083286,
1770985028331.192,4.760869565217392,-6.119565217391304,1.891304347826087,2.7887492519449433,-9.577498503889887,-0.466786355475763,4055.6776556776554,1842.4908424908424,1.0,6.751668772574696,148.11153119092629,-3.129770992366412,-6.809160305343511,2.8702290076335877,-0.9220389805097451,0.06296851574212893,-0.4707646176911544,1986.080586080586,97.02624243069765,31.440842946083286,
1770985028350.723,4.793478260869565,-6.065217391304348,1.9456521739130435,2.8438061041292637,-9.52722920406942,-0.40933572710951527,4055.6776556776554,1844.6886446886447,1.0,6.756774004160764,147.99962221382697,-2.6564885496183206,-8.366412213740457,1.4809160305343512,-0.9160419790104948,0.06146926536731634,-0.4512743628185907,1863.003663003663,97.02909044486265,31.440842946083286,
1770985028370.254,4.858695652173913,-5.913043478260869,1.967391304347826,2.9228007181328546,-9.350089766606821,-0.3710353081986834,4048.3516483516482,1842.4908424908424,1.0,6.756774004160764,147.99962221382697,-2.900763358778626,-8.061068702290076,-0.6870229007633587,-0.9115442278860569,0.05397301349325337,-0.45727136431784104,1721.6117216117216,97.03478648158885,31.440842946083286,
1770985028389.7852,4.83695652173913,-5.804347826086956,2.0543478260869565,2.8964691801316578,-9.206463195691203,-0.31837223219628963,4048.3516483516482,1841.7582417582416,1.0,6.761879235746832,147.88788221970555,-4.152671755725191,-5.480916030534351,-1.4961832061068703,-0.9160419790104948,0.06746626686656672,-0.46326836581709147,1578.7545787545787,97.02909044486265,31.440842946083286,
1770985028409.3162,4.782608695652174,-5.880434782608695,2.108695652173913,2.853381208856972,-9.259126271693596,-0.23937761819269898,4029.304029304029,1809.5238095238094,1.0,6.761879235746832,147.88788221970555,-6.351145038167939,-2.8396946564885495,-1.5114503816793892,-0.9100449775112444,0.05247376311844078,-0.46326836581709147,1446.153846153846,97.03193846182639,31.440842946083286,
1770985028428.8474,4.760869565217392,-6.032608695652174,2.0978260869565215,2.829443447037702,-9.350089766606821,-0.24655894673847994,4027.8388278388275,1799.2673992673992,1.0,6.766984467332899,147.77631082610336,-7.862595419847328,-0.7786259541984732,-0.42748091603053434,-0.9085457271364318,0.06296851574212893,-0.4737631184407796,1329.6703296703297,97.02624243069765,31.440842946083286,
1770985028448.3784,4.706521739130435,-6.032608695652174,2.1630434782608696,2.7767803710353083,-9.441053261520048,-0.20586475164572113,4055.6776556776554,1832.9670329670328,1.0,6.766984467332899,147.77631082610336,-7.923664122137405,1.450381679389313,0.732824427480916,-0.9085457271364318,0.06446776611694152,-0.45727136431784104,1255.6776556776556,97.02624243069765,31.440842946083286,
1770985028467.9094,4.663043478260869,-5.989130434782608,2.1956521739130435,2.7073608617594256,-9.400359066427288,-0.12926391382405744,4046.8864468864467,1832.9670329670328,1.0,6.772089698918968,147.66490765171503,-6.916030534351145,2.519083969465649,1.7862595419847327,-0.9070464767616192,0.06446776611694152,-0.46176911544227883,1233.6996336996335,97.02624243069765,31.440842946083286,
1770985028487.441,4.684782608695652,-6.021739130434782,2.1956521739130435,2.7073608617594256,-9.426690604428485,-0.11250748055056851,4055.6776556776554,1842.4908424908424,1.0,6.772089698918968,147.66490765171503,-6.595419847328244,1.2671755725190839,3.1908396946564883,-0.9100449775112444,0.050974512743628186,-0.45727136431784104,1253.4798534798533,97.02624243069765,31.440842946083286,
1770985028506.9717,4.6521739130434785,-6.119565217391304,2.1630434782608696,2.7001795332136447,-9.512866546977857,-0.1436265709156194,4055.6776556776554,1844.6886446886447,1.0,6.777194930505036,147.55367231638417,-5.694656488549618,0.13740458015267176,3.6946564885496183,-0.9145427286356821,0.08695652173913043,-0.46326836581709147,1296.7032967032967,97.02624243069765,31.440842946083286,
1770985028526.5027,4.641304347826087,-6.195652173913043,2.1956521739130435,2.657091561938959,-9.63016157989228,-0.12447636146020347,4054.212454212454,1844.6886446886447,1.0,6.777194930505036,147.55367231638417,-4.9465648854961835,-2.595419847328244,3.7709923664122136,-0.9115442278860569,0.04497751124437781,-0.4512743628185907,1356.0439560439559,97.03193846182639,31.440842946083286,
1770985028546.034,4.673913043478261,-6.206521739130435,2.141304347826087,2.6882106523040097,-9.644524236983841,-0.12687013764213045,4048.3516483516482,1842.4908424908424,1.0,6.782300162091103,147.44260444109898,-3.480916030534351,-6.244274809160305,2.1374045801526718,-0.9115442278860569,0.046476761619190406,-0.45277361319340326,1410.2564102564102,97.02909044486265,31.440842946083286,
1770985028565.565,4.673913043478261,-6.228260869565217,2.108695652173913,2.7265110712148415,-9.67085577498504,-0.1603830041891083,4029.304029304029,1810.2564102564102,1.0,6.782300162091103,147.44260444109898,-3.0839694656488548,-9.450381679389313,0.7175572519083969,-0.9115442278860569,0.06446776611694152,-0.45277361319340326,1454.9450549450548,97.02909044486265,31.440842946083286,
1770985028585.0962,4.641304347826087,-6.195652173913043,2.0978260869565215,2.6977857570317174,-9.675643327348892,-0.2106523040095751,4027.8388278388275,1799.2673992673992,1.0,6.782300162091103,147.44260444109898,-2.33587786259542,-11.81679389312977,-0.7938931297709924,-0.9160419790104948,0.06296851574212893,-0.46176911544227883,1471.7948717948716,97.02909044486265,31.440842946083286,
1770985028604.6272,4.608695652173913,-6.195652173913043,2.0543478260869565,2.6523040095751047,-9.642130460801916,-0.24895272292040693,4055.6776556776554,1832.9670329670328,1.0,6.782300162091103,147.44260444109898,-1.8015267175572518,-12.916030534351144,-2.687022900763359,-0.9070464767616192,0.06146926536731634,-0.46026986506746626,1466.6666666666665,97.02624243069765,31.440842946083286,
1770985028624.1582,4.641304347826087,-6.130434782608695,2.0760869565217392,2.657091561938959,-9.615798922800717,-0.2585278276481149,4048.3516483516482,1838.8278388278386,1.0,6.787405393677171,147.33170364798795,-0.9465648854961831,-13.099236641221374,-4.198473282442748,-0.9100449775112444,0.06146926536731634,-0.46326836581709147,1436.6300366300366,97.02909044486265,31.440842946083286,
1770985028643.6897,4.608695652173913,-6.032608695652174,2.108695652173913,2.657091561938959,-9.500897666068223,-0.23219628964691802,4027.8388278388275,1807.3260073260071,1.0,6.787405393677171,147.33170364798795,0.0,-12.6412213740458,-5.32824427480916,-0.8995502248875562,0.04947526236881559,-0.4497751124437781,1389.0109890109889,97.03193846182639,31.440842946083286,
1770985028663.2205,4.608695652173913,-5.880434782608695,2.1847826086956523,2.649910233393178,-9.347695990424896,-0.16517055655296228,4055.6776556776554,1835.164835164835,1.0,6.787405393677171,147.33170364798795,0.0,-10.870229007633588,-5.083969465648854,-0.9085457271364318,0.04497751124437781,-0.46026986506746626,1358.2417582417581,97.02909044486265,31.440842946083286,
1770985028682.7517,4.5978260869565215,-5.83695652173913,2.1630434782608696,2.6427289048473965,-9.247157390783961,-0.14602034709754638,4051.282051282051,1841.0256410256409,1.0,6.787405393677171,147.33170364798795,-0.7938931297709924,-9.31297709923664,-3.8625954198473282,-0.9085457271364318,0.06296851574212893,-0.46326836581709147,1346.5201465201465,97.03193846182639,31.440842946083286,
1770985028702.2827,4.5978260869565215,-5.826086956521739,2.1956521739130435,2.621184919210054,-9.223219628964692,-0.1412327947336924,4048.3516483516482,1841.7582417582416,1.0,6.787405393677171,147.33170364798795,-2.6564885496183206,-7.206106870229007,-1.4351145038167938,-0.9025487256371814,0.047976011994003,-0.4542728635682159,1347.985347985348,97.03763450415,31.440842946083286,
1770985028721.8137,4.608695652173913,-5.793478260869565,2.3152173913043477,2.6355475763016156,-9.220825852782765,-0.01436265709156194,4039.560439560439,1826.3736263736262,1.0,6.787405393677171,147.33170364798795,-4.396946564885496,-4.473282442748092,2.5343511450381677,-0.8995502248875562,0.05247376311844078,-0.4407796101949025,1350.9157509157508,97.03193846182639,31.440842946083286,
1770985028741.345,4.673913043478261,-5.804347826086956,2.3369565217391304,2.6786355475763015,-9.20885697187313,0.019150209455415918,4055.6776556776554,1839.5604395604394,1.0,6.787405393677171,147.33170364798795,-6.229007633587786,-2.091603053435114,6.061068702290076,-0.9100449775112444,0.05247376311844078,-0.4587706146926537,1340.6593406593406,97.02624243069765,31.440842946083286,
1770985028760.876,4.641304347826087,-5.880434782608695,2.293478260869565,2.657091561938959,-9.285457809694794,0.0023937761819269898,4055.6776556776554,1843.956043956044,1.0,6.787405393677171,147.33170364798795,-7.862595419847328,-0.5343511450381679,9.84732824427481,-0.9025487256371814,0.05997001499250375,-0.46326836581709147,1316.4835164835165,97.03193846182639,31.440842946083286,
1770985028780.4072,4.641304347826087,-5.989130434782608,2.282608695652174,2.6427289048473965,-9.412327947336923,-0.0023937761819269898,4046.8864468864467,1836.6300366300366,1.0,6.787405393677171,147.33170364798795,-8.396946564885496,0.5954198473282443,13.236641221374045,-0.8860569715142429,0.047976011994003,-0.4512743628185907,1292.3076923076922,97.02909044486265,31.440842946083286,
1770985028799.9382,4.706521739130435,-6.043478260869565,2.3260869565217392,2.724117295032914,-9.460203470975463,0.009575104727707959,4026.373626373626,1799.9999999999998,1.0,6.787405393677171,147.33170364798795,-7.343511450381679,0.41221374045801523,14.412213740458014,-0.8980509745127436,0.047976011994003,-0.4662668665667166,1298.168498168498,97.03067946314974,31.45089297601953,
1770985028819.4692,4.75,-6.0,2.358695652173913,2.81508078994614,-9.41472172351885,0.0933572710951526,4055.6776556776554,1832.9670329670328,1.0,6.787405393677171,147.33170364798795,-6.137404580152672,0.2748091603053435,14.534351145038167,-0.8935532233883058,0.047976011994003,-0.46026986506746626,1371.4285714285713,97.03352752638692,31.45089297601953,
1770985028839.0005,4.75,-6.032608695652174,2.3260869565217392,2.786355475763016,-9.42429682824656,0.045481747456612806,4055.6776556776554,1841.7582417582416,1.0,6.782300162091103,147.44260444109898,-4.717557251908397,-0.5343511450381679,14.335877862595419,-0.8980509745127436,0.046476761619190406,-0.45277361319340326,1523.0769230769229,97.03352752638692,31.45089297601953,
1770985028858.5315,4.782608695652174,-6.0978260869565215,2.282608695652174,2.817474566128067,-9.515260323159785,-0.009575104727707959,4055.6776556776554,1844.6886446886447,1.0,6.782300162091103,147.44260444109898,-3.66412213740458,-1.4809160305343512,12.65648854961832,-0.9010494752623688,0.05997001499250375,-0.4452773613193403,1727.4725274725274,97.03067946314974,31.45089297601953,
1770985028878.0627,4.826086956521739,-6.043478260869565,2.293478260869565,2.8677438659485337,-9.496110113704368,-0.033512866546977854,4030.7692307692305,1816.8498168498168,1.0,6.782300162091103,147.44260444109898,-2.427480916030534,-2.198473282442748,10.625954198473282,-0.8935532233883058,0.050974512743628186,-0.4467766116941529,1908.4249084249084,97.03637559242291,31.45089297601953,
1770985028897.5938,4.771739130434782,-6.0,2.3043478260869565,2.8749251944943146,-9.412327947336923,0.009575104727707959,4029.304029304029,1802.197802197802,1.0,6.782300162091103,147.44260444109898,-1.1450381679389312,-2.5801526717557253,7.9541984732824424,-0.8920539730134932,0.07496251874062969,-0.44377811094452774,2027.106227106227,97.03067946314974,31.45089297601953,
1770985028917.1248,4.760869565217392,-6.032608695652174,2.25,2.858168761220826,-9.412327947336923,-0.02154398563734291,4055.6776556776554,1833.6996336996335,1.0,6.782300162091103,147.44260444109898,-0.366412213740458,-3.66412213740458,4.625954198473282,-0.8860569715142429,0.0704647676161919,-0.45727136431784104,2066.6666666666665,97.03352752638692,31.45089297601953,
1770985028936.656,4.695652173913043,-5.978260869565217,2.1739130434782608,2.79114302812687,-9.417115499700778,-0.09096349491322561,4046.8864468864467,1833.6996336996335,1.0,6.782300162091103,147.44260444109898,0.32061068702290074,-5.114503816793893,1.618320610687023,-0.896551724137931,0.04047976011994003,-0.4482758620689655,2025.6410256410254,97.03637559242291,31.45089297601953,
1770985028956.187,4.706521739130435,-5.923913043478261,2.1847826086956523,2.7289048473967683,-9.369239976062238,-0.12208258527827648,4055.6776556776554,1842.4908424908424,1.0,6.782300162091103,147.44260444109898,1.9083969465648853,-6.8396946564885495,-1.3740458015267174,-0.8905547226386806,0.04947526236881559,-0.44377811094452774,1915.7509157509155,97.03352752638692,31.45089297601953,
1770985028975.718,4.6521739130434785,-5.945652173913043,2.1739130434782608,2.74326750448833,-9.338120885697187,-0.12447636146020347,4057.142857142857,1850.5494505494505,1.0,6.777194930505036,147.55367231638417,2.9618320610687023,-8.65648854961832,-3.465648854961832,-0.8920539730134932,0.05547226386806597,-0.45277361319340326,1767.7655677655675,97.03637559242291,31.45089297601953,
1770985028995.2493,4.608695652173913,-5.945652173913043,2.0869565217391304,2.637941352483543,-9.357271095152603,-0.19150209455415917,4055.6776556776554,1846.8864468864467,1.0,6.777194930505036,147.55367231638417,2.9923664122137406,-9.83206106870229,-4.931297709923664,-0.889055472263868,0.05697151424287856,-0.4422788605697151,1600.7326007326005,97.03352752638692,31.45089297601953,
1770985029014.7805,4.619565217391305,-5.858695652173913,2.0652173913043477,2.6403351286654697,-9.31897067624177,-0.2728904847396768,4055.6776556776554,1846.153846153846,1.0,6.777194930505036,147.55367231638417,3.847328244274809,-11.190839694656487,-5.969465648854961,-0.8830584707646176,0.05247376311844078,-0.44377811094452774,1429.3040293040292,97.03352752638692,31.45089297601953,
1770985029034.3115,4.630434782608695,-5.858695652173913,2.032608695652174,2.657091561938959,-9.259126271693596,-0.31119090365050867,4030.7692307692305,1816.8498168498168,1.0,6.777194930505036,147.55367231638417,3.9541984732824424,-11.511450381679388,-5.816793893129771,-0.8875562218890555,0.07946026986506746,-0.4587706146926537,1290.10989010989,97.02783140271136,31.45089297601953,
1770985029053.8423,4.630434782608695,-5.793478260869565,2.0217391304347827,2.6642728904847397,-9.223219628964692,-0.3375224416517056,4055.6776556776554,1837.3626373626373,1.0,6.772089698918968,147.66490765171503,3.32824427480916,-11.954198473282442,-6.0,-0.8860569715142429,0.050974512743628186,-0.4467766116941529,1215.3846153846152,97.03067946314974,31.45089297601953,
1770985029073.3735,4.684782608695652,-5.771739130434782,2.0869565217391304,2.7097546379413524,-9.134649910233392,-0.27767803710353084,4055.6776556776554,1843.956043956044,1.0,6.772089698918968,147.66490765171503,2.6564885496183206,-11.389312977099236,-5.007633587786259,-0.8800599700149925,0.07496251874062969,-0.4542728635682159,1193.4065934065934,97.03922366125771,31.45089297601953,
1770985029092.9048,4.695652173913043,-5.8478260869565215,2.0543478260869565,2.7408737283064033,-9.251944943147816,-0.2800718132854578,4045.421245421245,1835.164835164835,1.0,6.772089698918968,147.66490765171503,0.061068702290076333,-10.167938931297709,-3.9083969465648853,-0.8845577211394302,0.050974512743628186,-0.4452773613193403,1200.7326007326008,97.03637559242291,31.45089297601953,
1770985029112.4358,4.673913043478261,-5.8478260869565215,1.967391304347826,2.7169359664871333,-9.261520047875523,-0.3279473369239976,4027.8388278388275,1806.5934065934064,1.0,6.766984467332899,147.77631082610336,-1.1755725190839694,-9.221374045801527,-3.0839694656488548,-0.8845577211394302,0.050974512743628186,-0.4542728635682159,1234.4322344322343,97.03352752638692,31.45089297601953,
1770985029131.967,4.641304347826087,-5.673913043478261,1.967391304347826,2.669060442848594,-9.103530819868341,-0.3925792938360263,4054.212454212454,1840.2930402930401,1.0,6.766984467332899,147.77631082610336,-1.648854961832061,-8.13740458015267,-3.16030534351145,-0.8875562218890555,0.05697151424287856,-0.4512743628185907,1279.120879120879,97.02783140271136,31.45089297601953,
1770985029151.498,4.6521739130434785,-5.554347826086956,2.043478260869565,2.6810293237582283,-8.933572710951525,-0.34230999401555956,4052.7472527472523,1843.956043956044,1.0,6.761879235746832,147.88788221970555,-2.1068702290076335,-7.908396946564885,-4.2748091603053435,-0.896551724137931,0.07196401799100449,-0.4512743628185907,1326.7399267399267,97.03352752638692,31.45089297601953,
1770985029171.029,4.58695652173913,-5.695652173913043,2.032608695652174,2.6403351286654697,-9.031717534410532,-0.3064033512866547,4055.6776556776554,1845.4212454212452,1.0,6.761879235746832,147.88788221970555,-4.549618320610687,-8.732824427480915,-4.534351145038168,-0.8860569715142429,0.05697151424287856,-0.45277361319340326,1354.5787545787546,97.03067946314974,31.45089297601953,
1770985029190.5603,4.630434782608695,-5.815217391304348,2.0760869565217392,2.6594853381208856,-9.199281867145421,-0.29204069419509276,4045.421245421245,1835.164835164835,1.0,6.761879235746832,147.88788221970555,-6.137404580152672,-10.80916030534351,-6.473282442748092,-0.8905547226386806,0.04947526236881559,-0.4512743628185907,1364.8351648351647,97.02783140271136,31.45089297601953,
1770985029210.0913,4.695652173913043,-6.0,2.130434782608696,2.7193297426690606,-9.405146618791143,-0.16517055655296228,4055.6776556776554,1843.2234432234432,1.0,6.756774004160764,147.99962221382697,-4.458015267175572,-12.229007633587786,-7.145038167938931,-0.8830584707646176,0.047976011994003,-0.4452773613193403,1347.2527472527472,97.03067946314974,31.45089297601953,
1770985029229.6226,4.684782608695652,-6.326086956521739,2.260869565217391,2.7408737283064033,-9.7737881508079,-0.059844404548174746,4054.212454212454,1850.5494505494505,1.0,6.756774004160764,147.99962221382697,-4.381679389312977,-15.389312977099236,-9.16030534351145,-0.889055472263868,0.047976011994003,-0.4407796101949025,1326.007326007326,97.03352752638692,31.45089297601953,
1770985029249.1536,4.619565217391305,-6.826086956521739,2.152173913043478,2.6523040095751047,-10.312387791741472,-0.15798922800718132,4046.8864468864467,1837.3626373626373,1.0,6.751668772574696,148.11153119092629,-0.1984732824427481,-27.175572519083968,-13.770992366412214,-0.889055472263868,0.06146926536731634,-0.45577211394302847,1315.7509157509157,97.03352752638692,31.45089297601953,
1770985029268.6846,4.391304347826087,-6.684782608695652,2.141304347826087,2.554159186116098,-10.34590065828845,-0.15798922800718132,4055.6776556776554,1843.956043956044,1.0,6.751668772574696,148.11153119092629,4.763358778625954,-34.351145038167935,-17.862595419847327,-0.8845577211394302,0.05847076461769115,-0.43928035982008995,1304.0293040293038,97.02783140271136,31.45089297601953,
1770985029288.2158,4.4021739130434785,-6.380434782608695,2.2065217391304346,2.39377618192699,-9.984440454817474,-0.13405146618791142,4055.6776556776554,1844.6886446886447,1.0,6.751668772574696,148.11153119092629,5.450381679389313,-40.93129770992366,-21.64885496183206,-0.8860569715142429,0.05247376311844078,-0.43778110944527737,1300.3663003663003,97.03352752638692,31.45089297601953,
1770985029307.7468,4.391304347826087,-6.195652173913043,2.2717391304347827,2.4320766008378216,-9.730700179533214,-0.059844404548174746,4054.212454212454,1851.2820512820513,1.0,6.746563540988627,148.22360953461975,5.450381679389313,-45.038167938931295,-23.938931297709924,-0.8830584707646176,0.05547226386806597,-0.43928035982008995,1298.168498168498,97.03637559242291,31.45089297601953,
1770985029327.278,4.467391304347826,-6.054347826086956,2.3043478260869565,2.4631956912028725,-9.570317175344105,-0.04308797127468582,4055.6776556776554,1847.6190476190475,1.0,6.746563540988627,148.22360953461975,4.900763358778626,-43.75572519083969,-23.78625954198473,-0.8785607196401799,0.041979010494752625,-0.4422788605697151,1284.9816849816848,97.03067946314974,31.45089297601953,
1770985029346.809,4.554347826086956,-5.9021739130434785,2.380434782608696,2.4775583482944343,-9.397965290245361,-0.031119090365050867,4030.7692307692305,1817.5824175824175,1.0,6.741458309402559,148.33585762968573,3.877862595419847,-37.95419847328244,-21.69465648854962,-0.8785607196401799,0.04497751124437781,-0.43178410794602695,1274.7252747252746,97.03067946314974,31.45089297601953,
1770985029366.34,4.510869565217392,-5.717391304347826,2.532608695652174,2.570915619389587,-9.165769000598443,0.1603830041891083,4055.6776556776554,1838.095238095238,1.0,6.736353077816491,148.44827586206898,2.610687022900763,-30.183206106870227,-16.259541984732824,-0.8785607196401799,0.05547226386806597,-0.4452773613193403,1282.7838827838827,97.03352752638692,31.45089297601953,
1770985029385.871,4.695652173913043,-5.5978260869565215,2.6739130434782608,2.618791143028127,-9.019748653500898,0.2992220227408737,4055.6776556776554,1843.2234432234432,1.0,6.736353077816491,148.44827586206898,0.7633587786259541,-20.519083969465647,-9.969465648854962,-0.8830584707646176,0.05847076461769115,-0.44377811094452774,1280.5860805860805,97.03067946314974,31.45089297601953,
1770985029405.4023,4.521739130434782,-5.5978260869565215,2.75,2.585278276481149,-8.9311789347696,0.45960502692998206,4045.421245421245,1835.164835164835,1.0,6.731247846230423,148.56086461888512,-1.9694656488549618,-13.32824427480916,-2.8854961832061066,-0.8755622188905547,0.05247376311844078,-0.43928035982008995,1275.4578754578754,97.03352752638692,31.45089297601953,
1770985029424.933,4.6521739130434785,-5.565217391304348,2.8043478260869565,2.590065828845003,-8.945541591861161,0.5002992220227409,4057.142857142857,1849.084249084249,1.0,6.726142614644356,148.67362428842506,-3.4351145038167936,-7.343511450381679,5.2824427480916025,-0.881559220389805,0.05997001499250375,-0.43928035982008995,1289.3772893772893,97.03352752638692,31.45089297601953,
1770985029444.4646,4.739130434782608,-5.619565217391304,2.7282608695652173,2.724117295032914,-8.950329144225014,0.5146618791143028,4055.6776556776554,1846.8864468864467,1.0,6.726142614644356,148.67362428842506,-5.450381679389313,-0.9312977099236641,12.229007633587786,-0.8665667166416792,0.047976011994003,-0.4332833583208396,1372.161172161172,97.03352752638692,31.45089297601953,
1770985029463.9956,4.782608695652174,-5.706521739130435,2.75,2.824655894673848,-9.036505086774387,0.4907241172950329,4055.6776556776554,1846.153846153846,1.0,6.721037383058288,148.78655526015953,-6.946564885496183,6.152671755725191,20.702290076335878,-0.8785607196401799,0.041979010494752625,-0.4407796101949025,1520.8791208791208,97.03637559242291,31.45089297601953,
1770985029483.5269,4.869565217391305,-5.815217391304348,2.652173913043478,2.9180131657690005,-9.21603830041891,0.41651705565529623,4046.8864468864467,1837.3626373626373,1.0,6.721037383058288,148.78655526015953,-6.198473282442748,12.885496183206106,27.16030534351145,-0.8755622188905547,0.07946026986506746,-0.4482758620689655,1699.6336996336995,97.03637559242291,31.45089297601953,
1770985029503.058,4.956521739130435,-6.0,2.630434782608696,2.963494913225613,-9.37642130460802,0.3734290843806104,4032.234432234432,1810.2564102564102,1.0,6.715932151472221,148.89965792474345,-6.580152671755725,16.610687022900763,31.2824427480916,-0.8770614692653673,0.06146926536731634,-0.44377811094452774,1863.7362637362637,97.02783140271136,31.45089297601953,
1770985029522.5889,4.967391304347826,-6.184782608695652,2.5,3.030520646319569,-9.591861160981448,0.2704967085577498,4055.6776556776554,1842.4908424908424,1.0,6.715932151472221,148.89965792474345,-5.175572519083969,17.557251908396946,34.47328244274809,-0.8665667166416792,0.047976011994003,-0.4407796101949025,1961.172161172161,97.03352752638692,31.45089297601953,
1770985029542.12,4.923913043478261,-6.173913043478261,2.4130434782608696,3.023339317773788,-9.658886894075403,0.15559545182525433,4055.6776556776554,1844.6886446886447,1.0,6.710826919886152,149.01293267402056,-2.763358778625954,17.374045801526716,34.091603053435115,-0.8740629685157421,0.05397301349325337,-0.43478260869565216,1981.6849816849815,97.03352752638692,31.45089297601953,
1770985029561.6511,4.869565217391305,-6.108695652173913,2.3043478260869565,2.951526032315978,-9.565529622980252,0.052663076002393776,4043.9560439560437,1828.5714285714284,1.0,6.705721688300085,149.1263799010278,-1.6946564885496183,14.977099236641221,30.442748091603054,-0.8740629685157421,0.050974512743628186,-0.43778110944527737,1915.018315018315,97.03637559242291,31.45089297601953,
1770985029581.1824,4.858695652173913,-6.065217391304348,2.293478260869565,2.9443447037701973,-9.534410532615201,-0.00718132854578097,4027.8388278388275,1804.3956043956043,1.0,6.700616456714018,149.24,-0.9312977099236641,11.862595419847327,26.244274809160306,-0.8695652173913043,0.05547226386806597,-0.43478260869565216,1785.3479853479853,97.03352752638692,31.45089297601953,
1770985029600.7134,4.913043478260869,-6.021739130434782,2.2391304347826084,2.98982645122681,-9.467384799521245,-0.05745062836624776,4055.6776556776554,1833.6996336996335,1.0,6.69551122512795,149.3537933663744,-0.04580152671755725,8.99236641221374,20.045801526717558,-0.8620689655172413,0.05247376311844078,-0.43478260869565216,1631.5018315018315,97.03067946314974,31.45089297601953,
1770985029620.2444,5.0,-6.032608695652174,2.130434782608696,3.049670855774985,-9.453022142429683,-0.16756433273488927,4054.212454212454,1847.6190476190475,1.0,6.690405993541881,149.46776039679514,0.0,7.007633587786259,14.473282442748092,-0.8665667166416792,0.0704647676161919,-0.4467766116941529,1473.9926739926739,97.03352752638692,31.45089297601953,
1770985029639.7756,5.010869565217392,-6.08695652173913,2.010869565217391,3.1143028126870136,-9.52722920406942,-0.2992220227408737,4055.6776556776554,1846.153846153846,1.0,6.690405993541881,149.46776039679514,0.030534351145038167,4.931297709923664,8.778625954198473,-0.8665667166416792,0.06596701649175413,-0.4497751124437781,1317.9487179487178,97.03067946314974,31.45089297601953,
1770985029659.3066,5.0978260869565215,-6.119565217391304,1.9782608695652173,3.190903650508677,-9.565529622980252,-0.3734290843806104,4051.282051282051,1843.956043956044,1.0,6.685300761955814,149.581901489118,1.7709923664122136,4.030534351145038,3.3740458015267176,-0.8665667166416792,0.05697151424287856,-0.43178410794602695,1186.8131868131868,97.03352752638692,31.45089297601953,
1770985029678.838,5.032608695652174,-6.032608695652174,1.9456521739130435,3.2004787552363854,-9.524835427887492,-0.3925792938360263,4027.8388278388275,1809.5238095238094,1.0,6.680195530369747,149.696217042415,2.5801526717557253,3.8167938931297707,-1.0229007633587786,-0.8620689655172413,0.06146926536731634,-0.45277361319340326,1106.227106227106,97.03352752638692,31.45089297601953,
1770985029698.369,4.978260869565217,-6.054347826086956,1.9782608695652173,3.1238779174147218,-9.486535008976661,-0.38061041292639136,4055.6776556776554,1835.164835164835,1.0,6.675090298783678,149.81070745697897,2.427480916030534,3.633587786259542,-5.32824427480916,-0.856071964017991,0.0704647676161919,-0.4467766116941529,1078.3882783882784,97.03352752638692,31.45089297601953,
1770985029717.9,4.913043478260869,-6.119565217391304,1.967391304347826,3.0281268701376423,-9.52722920406942,-0.3734290843806104,4043.9560439560437,1826.3736263736262,1.0,6.66998506719761,149.92537313432837,1.984732824427481,2.2748091603053435,-9.32824427480916,-0.8725637181409295,0.050974512743628186,-0.43928035982008995,1088.6446886446886,97.03352752638692,31.45089297601953,
1770985029737.4312,4.869565217391305,-6.184782608695652,1.9782608695652173,2.98982645122681,-9.625374027528427,-0.3710353081986834,4055.6776556776554,1840.2930402930401,1.0,6.664879835611543,150.0402144772118,2.4427480916030535,0.9465648854961831,-13.404580152671755,-0.8680659670164917,0.07346326836581708,-0.43778110944527737,1119.4139194139193,97.02783140271136,31.45089297601953,
1770985029756.9622,4.793478260869565,-6.119565217391304,1.9891304347826086,2.8964691801316578,-9.567923399162177,-0.3758228605625374,4055.6776556776554,1843.956043956044,1.0,6.664879835611543,150.0402144772118,2.259541984732824,-0.4427480916030534,-17.541984732824428,-0.8710644677661169,0.07196401799100449,-0.4587706146926537,1169.230769230769,97.02783140271136,31.45089297601953,
1770985029776.4934,4.739130434782608,-6.0978260869565215,2.010869565217391,2.8509874326750446,-9.532016756433274,-0.3566726511071215,4051.282051282051,1843.2234432234432,1.0,6.659774604025475,150.15523188961288,1.8015267175572518,-1.5114503816793892,-20.9618320610687,-0.8695652173913043,0.06596701649175413,-0.45277361319340326,1224.1758241758241,97.03352752638692,31.45089297601953,
1770985029796.0244,4.673913043478261,-6.141304347826087,2.032608695652174,2.774386594853381,-9.541591861160981,-0.3087971274685817,4045.421245421245,1835.164835164835,1.0,6.654669372439407,150.2704257767549,0.8396946564885496,-2.4885496183206106,-24.610687022900763,-0.8725637181409295,0.05697151424287856,-0.45577211394302847,1271.7948717948716,97.03352752638692,31.45089297601953,
1770985029815.5554,4.576086956521739,-6.163043478260869,2.0,2.6714542190305206,-9.618192698982645,-0.3064033512866547,4049.8168498168498,1834.4322344322343,1.0,6.6495641408533395,150.38579654510556,2.1526717557251906,-4.198473282442748,-28.732824427480914,-0.8695652173913043,0.05547226386806597,-0.43928035982008995,1295.970695970696,97.03922366125771,31.45089297601953,
1770985029835.087,4.467391304347826,-6.010869565217392,1.9565217391304348,2.558946738479952,-9.47935368043088,-0.38539796529024534,4054.212454212454,1848.3516483516482,1.0,6.6495641408533395,150.38579654510556,2.8244274809160306,-5.022900763358779,-32.396946564885496,-0.8755622188905547,0.08095952023988005,-0.43628185907046474,1308.4249084249084,97.03352752638692,31.45089297601953,
1770985029854.6177,4.434782608695652,-5.9021739130434785,1.9239130434782608,2.4703770197486534,-9.326152004787552,-0.4428485936564931,4054.212454212454,1852.0146520146518,1.0,6.6444589092672715,150.50134460238186,2.778625954198473,-5.923664122137405,-34.94656488549618,-0.8650674662668666,0.07196401799100449,-0.4452773613193403,1305.4945054945053,97.03637559242291,31.45089297601953,
1770985029874.149,4.380434782608695,-5.83695652173913,1.9021739130434783,2.4033512866546975,-9.25673249551167,-0.4859365649311789,4039.560439560439,1828.5714285714284,1.0,6.6393536776812025,150.6170703575548,2.1068702290076335,-5.374045801526718,-36.0,-0.881559220389805,0.07196401799100449,-0.4482758620689655,1285.7142857142856,97.03637559242291,31.45089297601953,
1770985029893.68,4.380434782608695,-5.782608695652174,1.891304347826087,2.398563734290844,-9.20885697187313,-0.5170556552962298,4026.373626373626,1798.5347985347985,1.0,6.634248446095136,150.73297422085417,0.10687022900763359,-2.4732824427480917,-35.282442748091604,-0.8875562218890555,0.0704647676161919,-0.46026986506746626,1261.5384615384614,97.03352752638692,31.45089297601953,
1770985029913.211,4.391304347826087,-5.684782608695652,1.891304347826087,2.379413524835428,-9.103530819868341,-0.4955116696588869,4055.6776556776554,1832.234432234432,1.0,6.629143214509068,150.8490566037736,-1.9694656488549618,1.129770992366412,-32.70229007633588,-0.8860569715142429,0.05247376311844078,-0.45277361319340326,1246.153846153846,97.03352752638692,31.45089297601953,
1770985029932.7422,4.413043478260869,-5.5978260869565215,1.967391304347826,2.4153201675643325,-8.988629563135847,-0.3901855176540993,4054.212454212454,1847.6190476190475,1.0,6.624037982923,150.96531791907515,-5.526717557251908,6.2748091603053435,-27.954198473282442,-0.8935532233883058,0.047976011994003,-0.45727136431784104,1245.4212454212454,97.03352752638692,31.45089297601953,
1770985029952.2732,4.434782608695652,-5.5,1.9782608695652173,2.4320766008378216,-8.868940754039498,-0.3686415320167564,4045.421245421245,1835.8974358974358,1.0,6.618932751336932,151.08175858079446,-8.381679389312977,11.145038167938932,-21.32824427480916,-0.8860569715142429,0.05847076461769115,-0.4512743628185907,1240.2930402930401,97.03637559242291,31.45089297601953,
1770985029971.8042,4.391304347826087,-5.391304347826087,2.217391304347826,2.391382405745063,-8.742070616397367,-0.22740873728306402,4030.7692307692305,1813.9194139194137,1.0,6.618932751336932,151.08175858079446,-11.557251908396946,16.213740458015266,-13.221374045801527,-0.8950524737631184,0.05847076461769115,-0.4452773613193403,1232.2344322344322,97.03067946314974,31.45089297601953,
1770985029991.3354,4.304347826086956,-5.728260869565217,2.358695652173913,2.2788749251944944,-9.01735487731897,0.05745062836624776,4055.6776556776554,1836.6300366300366,1.0,6.613827519750864,151.19837900424548,-18.045801526717558,18.12213740458015,-4.427480916030534,-0.8875562218890555,0.07196401799100449,-0.45577211394302847,1218.3150183150183,97.03352752638692,31.45089297601953,
1770985030010.8665,4.217391304347826,-6.021739130434782,2.3043478260869565,2.1879114302812686,-9.412327947336923,0.0047875523638539795,4054.212454212454,1848.3516483516482,1.0,6.608722288164796,151.3151796060255,-18.229007633587784,16.62595419847328,2.687022900763359,-0.8905547226386806,0.07346326836581708,-0.46026986506746626,1200.7326007326008,97.03352752638692,31.45089297601953,
1770985030030.3977,4.217391304347826,-5.956521739130435,2.293478260869565,2.1831238779174145,-9.37642130460802,-0.0047875523638539795,4039.560439560439,1828.5714285714284,1.0,6.603617056578729,151.4321608040201,-17.114503816793892,14.061068702290076,6.763358778625954,-0.889055472263868,0.05547226386806597,-0.45277361319340326,1170.6959706959706,97.03637559242291,31.45089297601953,
1770985030049.9287,4.282608695652174,-5.891304347826087,2.4130434782608696,2.295631358467983,-9.278276481149012,0.12687013764213045,4027.8388278388275,1804.3956043956043,1.0,6.59851182499266,151.54932301740814,-15.770992366412212,11.297709923664122,9.251908396946565,-0.8920539730134932,0.04047976011994003,-0.4452773613193403,1156.7765567765566,97.03067946314974,31.45089297601953,
1770985030069.4597,4.304347826086956,-5.945652173913043,2.5543478260869565,2.3099940155595453,-9.342908438061041,0.2896469180131658,4055.6776556776554,1834.4322344322343,1.0,6.59851182499266,151.54932301740814,-15.96946564885496,8.977099236641221,11.450381679389313,-0.8905547226386806,0.05547226386806597,-0.45277361319340326,1208.058608058608,97.03637559242291,31.45089297601953,
1770985030088.991,4.326086956521739,-6.076086956521739,2.684782608695652,2.314781567923399,-9.409934171154998,0.3710353081986834,4054.212454212454,1848.3516483516482,1.0,6.593406593406592,151.66666666666669,-15.007633587786259,7.099236641221374,11.511450381679388,-0.8875562218890555,0.05397301349325337,-0.43178410794602695,1329.6703296703297,97.02783140271136,31.45089297601953,
1770985030108.522,4.326086956521739,-6.195652173913043,2.7282608695652173,2.319569120287253,-9.57510472770796,0.4452423698384201,4045.421245421245,1836.6300366300366,1.0,6.588301361820525,151.78419217357614,-13.129770992366412,5.068702290076335,9.709923664122137,-0.8905547226386806,0.06746626686656672,-0.4407796101949025,1515.018315018315,97.03352752638692,31.45089297601953,
1770985030128.0532,4.315217391304348,-6.1521739130434785,2.717391304347826,2.343506882106523,-9.644524236983841,0.48114901256732495,4032.234432234432,1810.2564102564102,1.0,6.583196130234457,151.9018999612253,-10.458015267175572,2.5801526717557253,7.541984732824427,-0.8935532233883058,0.07196401799100449,-0.4587706146926537,1709.1575091575091,97.03067946314974,31.45089297601953,
1770985030147.5842,4.271739130434782,-6.163043478260869,2.793478260869565,2.317175344105326,-9.584679832435667,0.5122681029323758,4027.8388278388275,1799.2673992673992,1.0,6.583196130234457,151.9018999612253,-8.381679389312977,-1.099236641221374,5.480916030534351,-0.8860569715142429,0.06296851574212893,-0.4512743628185907,1853.4798534798533,97.03922366125771,31.45089297601953,
1770985030167.1152,4.326086956521739,-6.206521739130435,2.7717391304347827,2.295631358467983,-9.620586475164572,0.5625374027528426,4055.6776556776554,1832.9670329670328,1.0,6.57809089864839,152.0197904540163,-6.061068702290076,-5.755725190839694,3.801526717557252,-0.8875562218890555,0.05847076461769115,-0.4482758620689655,1902.5641025641025,97.02783140271136,31.45089297601953,
1770985030186.6465,4.380434782608695,-6.293478260869565,2.717391304347826,2.3961699581089166,-9.713943746259725,0.48114901256732495,4038.0952380952376,1816.8498168498168,1.0,6.572985667062321,152.13786407766992,-4.030534351145038,-10.442748091603052,2.045801526717557,-0.8800599700149925,0.05397301349325337,-0.4467766116941529,1874.7252747252746,97.02783140271136,31.45089297601953,
1770985030206.1775,4.456521739130435,-6.293478260869565,2.5869565217391304,2.4320766008378216,-9.769000598444045,0.38300418910831835,4027.8388278388275,1801.4652014652013,1.0,6.572985667062321,152.13786407766992,-0.41221374045801523,-13.31297709923664,1.3435114503816794,-0.889055472263868,0.050974512743628186,-0.43628185907046474,1783.150183150183,97.03922366125771,31.45089297601953,
1770985030225.7087,4.532608695652174,-6.163043478260869,2.543478260869565,2.539796529024536,-9.67085577498504,0.29204069419509276,4055.6776556776554,1832.9670329670328,1.0,6.567880435476255,152.25612125923047,3.145038167938931,-14.82442748091603,1.4961832061068703,-0.8860569715142429,0.06296851574212893,-0.4497751124437781,1652.0146520146518,97.02783140271136,31.45089297601953,
1770985030245.2395,4.543478260869565,-6.141304347826087,2.510869565217391,2.558946738479952,-9.596648713345301,0.24895272292040693,4052.7472527472523,1841.0256410256409,1.0,6.562775203890187,152.37456242707117,5.679389312977099,-14.564885496183205,2.396946564885496,-0.881559220389805,0.07196401799100449,-0.4512743628185907,1501.8315018315018,97.03922366125771,31.45089297601953,
1770985030264.7708,4.532608695652174,-6.076086956521739,2.380434782608696,2.5493716337522443,-9.555954518252543,0.13165769000598443,4043.9560439560437,1827.8388278388277,1.0,6.557669972304119,152.4931880108992,7.541984732824427,-14.442748091603052,3.7862595419847325,-0.8800599700149925,0.06896551724137931,-0.4497751124437781,1353.113553113553,97.03067946314974,31.45089297601953,
1770985030284.302,4.554347826086956,-5.967391304347826,2.3152173913043477,2.554159186116098,-9.419509275882705,0.0,4051.282051282051,1838.8278388278386,1.0,6.552564740718051,152.61199844176082,8.595419847328245,-14.625954198473282,4.763358778625954,-0.8785607196401799,0.04497751124437781,-0.43778110944527737,1236.6300366300366,97.03352752638692,31.45089297601953,
1770985030303.833,4.576086956521739,-5.858695652173913,2.2065217391304346,2.594853381208857,-9.31178934769599,-0.09575104727707959,4029.304029304029,1808.058608058608,1.0,6.547459509131984,152.73099415204678,8.229007633587786,-14.67175572519084,6.0,-0.8875562218890555,0.04497751124437781,-0.4422788605697151,1160.4395604395604,97.03637559242291,31.45089297601953,
1770985030323.3645,4.619565217391305,-5.826086956521739,2.1739130434782608,2.633153800119689,-9.242369838420107,-0.15559545182525433,4055.6776556776554,1835.164835164835,1.0,6.547459509131984,152.73099415204678,6.854961832061068,-14.763358778625953,6.885496183206107,-0.8830584707646176,0.047976011994003,-0.44377811094452774,1123.8095238095236,97.03067946314974,31.45089297601953,
1770985030342.8953,4.684782608695652,-5.815217391304348,2.0760869565217392,2.7073608617594256,-9.201675643327349,-0.22501496110113703,4038.0952380952376,1818.3150183150183,1.0,6.542354277545915,152.85017557549747,5.343511450381679,-14.015267175572518,7.816793893129771,-0.8740629685157421,0.05397301349325337,-0.43778110944527737,1133.3333333333333,97.03352752638692,31.45089297601953,
1770985030362.4265,4.75,-5.782608695652174,2.0,2.7576301615798924,-9.182525433871932,-0.3040095751047277,4027.8388278388275,1801.4652014652013,1.0,6.537249045959848,152.96954314720813,3.5725190839694654,-12.458015267175572,8.442748091603054,-0.8695652173913043,0.07496251874062969,-0.45727136431784104,1156.7765567765566,97.03637559242291,31.45089297601953,
1770985030381.9575,4.739130434782608,-5.869565217391304,1.934782608695652,2.79114302812687,-9.254338719329743,-0.40933572710951527,4055.6776556776554,1833.6996336996335,1.0,6.537249045959848,152.96954314720813,1.4809160305343512,-9.679389312977099,9.66412213740458,-0.8800599700149925,0.08095952023988005,-0.4482758620689655,1197.069597069597,97.03067946314974,31.45089297601953,
1770985030401.4883,4.75,-5.8478260869565215,1.8478260869565217,2.805505685218432,-9.275882704967085,-0.5146618791143028,4052.7472527472523,1841.0256410256409,1.0,6.53214381437378,153.08909730363422,0.5343511450381679,-6.870229007633587,9.969465648854962,-0.8770614692653673,0.07346326836581708,-0.4542728635682159,1235.8974358974358,97.03067946314974,31.45089297601953,
1770985030421.0195,4.739130434782608,-5.728260869565217,1.7717391304347825,2.793536804308797,-9.139437462597247,-0.5721125074805505,4041.0256410256407,1827.106227106227,1.0,6.527038582787711,153.2088384825968,-0.4427480916030534,-4.259541984732825,9.251908396946565,-0.8740629685157421,0.06746626686656672,-0.45727136431784104,1268.131868131868,97.03352752638692,31.45089297601953,
1770985030440.5508,4.739130434782608,-5.782608695652174,1.7391304347826086,2.7695990424895274,-9.146618791143029,-0.6439257929383603,4030.7692307692305,1811.7216117216117,1.0,6.5219333512016435,153.32876712328766,-2.33587786259542,-2.3664122137404577,8.977099236641221,-0.8665667166416792,0.06146926536731634,-0.45277361319340326,1287.9120879120878,97.03067946314974,31.45089297601953,
1770985030460.0818,4.717391304347826,-5.880434782608695,1.7282608695652173,2.783961699581089,-9.304608019150209,-0.6463195691202872,4026.373626373626,1793.4065934065932,1.0,6.5219333512016435,153.32876712328766,-5.007633587786259,-0.015267175572519083,8.48854961832061,-0.8680659670164917,0.05697151424287856,-0.4542728635682159,1290.8424908424909,97.02783140271136,31.45089297601953,
1770985030479.613,4.673913043478261,-5.945652173913043,1.8152173913043477,2.7193297426690606,-9.321364452423698,-0.5529622980251346,4052.7472527472523,1830.03663003663,1.0,6.5168281196155755,153.44888366627498,-6.7328244274809155,2.4122137404580153,7.404580152671755,-0.8650674662668666,0.05847076461769115,-0.44377811094452774,1279.8534798534797,97.03067946314974,31.45089297601953,
1770985030499.144,4.565217391304348,-5.945652173913043,1.891304347826087,2.5924596050269297,-9.347695990424896,-0.45481747456612803,4035.164835164835,1815.3846153846152,1.0,6.5117228880295075,153.56918855350844,-8.717557251908397,3.7251908396946565,6.900763358778626,-0.8710644677661169,0.07196401799100449,-0.45727136431784104,1263.003663003663,97.02783140271136,31.45089297601953,
1770985030518.675,4.445652173913043,-5.945652173913043,1.826086956521739,2.542190305206463,-9.32854578096948,-0.4907241172950329,4026.373626373626,1787.5457875457873,1.0,6.5117228880295075,153.56918855350844,-10.229007633587786,1.9083969465648853,6.381679389312977,-0.8695652173913043,0.08095952023988005,-0.4512743628185907,1239.5604395604396,97.03067946314974,31.45089297601953,
1770985030538.2063,4.391304347826087,-6.032608695652174,1.9021739130434783,2.4368641532016757,-9.390783961699581,-0.5170556552962298,4054.212454212454,1834.4322344322343,1.0,6.5117228880295075,153.56918855350844,-10.717557251908396,-1.3435114503816794,5.587786259541985,-0.8680659670164917,0.0704647676161919,-0.4497751124437781,1200.0,97.03067946314974,31.45089297601953,
1770985030557.7373,4.3478260869565215,-6.108695652173913,1.9565217391304348,2.39377618192699,-9.51047277079593,-0.41172950329144226,4051.282051282051,1840.2930402930401,1.0,6.5066176564434395,153.68968222832484,-10.80916030534351,-6.381679389312977,5.236641221374046,-0.8695652173913043,0.06896551724137931,-0.4482758620689655,1158.974358974359,97.022135290231,31.45089297601953,
1770985030577.2686,4.369565217391305,-6.054347826086956,2.0,2.3770197486535007,-9.520047875523638,-0.3375224416517056,4039.560439560439,1825.6410256410254,1.0,6.5066176564434395,153.68968222832484,-9.770992366412214,-11.740458015267174,4.213740458015267,-0.8605697151424287,0.05547226386806597,-0.4452773613193403,1124.5421245421244,97.02783140271136,31.45089297601953,
1770985030596.7996,4.489130434782608,-5.989130434782608,2.0760869565217392,2.4560143626570916,-9.45541591861161,-0.2728904847396768,4030.7692307692305,1810.989010989011,1.0,6.501512424857372,153.81036513545348,-9.099236641221374,-15.84732824427481,3.2061068702290076,-0.8590704647676162,0.05997001499250375,-0.4467766116941529,1104.7619047619046,97.02783140271136,31.45089297601953,
1770985030616.3306,4.58695652173913,-5.945652173913043,2.1630434782608696,2.590065828845003,-9.381208856971872,-0.20586475164572113,4027.8388278388275,1799.2673992673992,1.0,6.501512424857372,153.81036513545348,-8.65648854961832,-17.450381679389313,3.4351145038167936,-0.856071964017991,0.05547226386806597,-0.4497751124437781,1101.8315018315018,97.02498334507179,31.45089297601953,
1770985030635.8618,4.608695652173913,-5.989130434782608,2.2065217391304346,2.6403351286654697,-9.369239976062238,-0.10771992818671454,4054.212454212454,1838.095238095238,1.0,6.496407193271305,153.9312377210216,-9.068702290076336,-16.48854961832061,3.1755725190839694,-0.8665667166416792,0.06596701649175413,-0.44377811094452774,1111.3553113553112,97.03067946314974,31.45089297601953,
1770985030655.3928,4.5978260869565215,-6.076086956521739,2.282608695652174,2.6403351286654697,-9.46259724715739,-0.04308797127468582,4035.164835164835,1817.5824175824175,1.0,6.491301961685236,154.05230043255997,-9.725190839694656,-13.954198473282442,3.0076335877862594,-0.8575712143928036,0.07196401799100449,-0.44377811094452774,1128.937728937729,97.02783140271136,31.45089297601953,
1770985030674.924,4.5978260869565215,-6.08695652173913,2.3260869565217392,2.6235786953919806,-9.515260323159785,-0.0023937761819269898,4055.6776556776554,1838.095238095238,1.0,6.491301961685236,154.05230043255997,-9.862595419847327,-11.465648854961831,2.763358778625954,-0.8575712143928036,0.04047976011994003,-0.43628185907046474,1169.230769230769,97.03352752638692,31.45089297601953,
1770985030694.455,4.554347826086956,-6.108695652173913,2.4130434782608696,2.580490724117295,-9.512866546977857,0.07660083782166367,4055.6776556776554,1843.956043956044,1.0,6.48619673009917,154.17355371900825,-9.633587786259541,-8.702290076335878,2.3206106870229006,-0.8605697151424287,0.043478260869565216,-0.4407796101949025,1276.923076923077,97.03067946314974,31.45089297601953,
1770985030713.986,4.467391304347826,-6.141304347826087,2.467391304347826,2.52064631956912,-9.584679832435667,0.17235188509874327,4054.212454212454,1851.2820512820513,1.0,6.48619673009917,154.17355371900825,-9.893129770992367,-7.465648854961832,2.6717557251908395,-0.8575712143928036,0.05697151424287856,-0.43628185907046474,1444.6886446886447,97.03067946314974,31.45089297601953,
1770985030733.517,4.5,-6.1521739130434785,2.4891304347826084,2.491921005385996,-9.579892280071814,0.22262118491921004,4038.0952380952376,1822.7106227106226,1.0,6.48619673009917,154.17355371900825,-9.17557251908397,-6.198473282442748,2.8396946564885495,-0.8575712143928036,0.05847076461769115,-0.43628185907046474,1635.164835164835,97.03352752638692,31.45089297601953,
1770985030753.0483,4.521739130434782,-6.141304347826087,2.543478260869565,2.52064631956912,-9.55834829443447,0.24895272292040693,4032.234432234432,1806.5934065934064,1.0,6.481091498513101,154.29499803072076,-8.65648854961832,-5.908396946564885,3.3740458015267176,-0.8440779610194902,0.05997001499250375,-0.4302848575712144,1799.2673992673992,97.03352752638692,31.45089297601953,
1770985030772.5796,4.521739130434782,-6.065217391304348,2.5652173913043477,2.532615200478755,-9.515260323159785,0.3040095751047277,4029.304029304029,1799.2673992673992,1.0,6.475986266927033,154.41663381947183,-7.267175572519084,-4.564885496183206,3.7557251908396947,-0.8575712143928036,0.07346326836581708,-0.4302848575712144,1882.051282051282,97.03637559242291,31.45089297601953,
1770985030792.1106,4.565217391304348,-6.076086956521739,2.543478260869565,2.582884500299222,-9.512866546977857,0.2728904847396768,4055.6776556776554,1832.9670329670328,1.0,6.470881035340965,154.53846153846155,-6.3206106870229,-3.3435114503816794,4.67175572519084,-0.8515742128935532,0.0704647676161919,-0.43478260869565216,1879.8534798534797,97.03399192997894,31.435817931551718,
1770985030811.6416,4.608695652173913,-6.108695652173913,2.4782608695652173,2.621184919210054,-9.551166965888688,0.22980251346499103,4033.6996336996335,1814.6520146520145,1.0,6.470881035340965,154.53846153846155,-5.099236641221374,-1.450381679389313,5.801526717557252,-0.8470764617691154,0.0704647676161919,-0.43628185907046474,1799.2673992673992,97.03683992940336,31.435817931551718,
1770985030831.1729,4.630434782608695,-6.076086956521739,2.4782608695652173,2.6594853381208856,-9.541591861160981,0.22022740873728305,4029.304029304029,1801.4652014652013,1.0,6.465775803754899,154.66048164232134,-3.9847328244274807,0.07633587786259542,5.893129770992366,-0.8455772113943029,0.05997001499250375,-0.424287856071964,1671.0622710622708,97.03399192997894,31.435817931551718,
1770985030850.704,4.619565217391305,-5.923913043478261,2.5,2.6666666666666665,-9.354877318970676,0.19868342309994014,4055.6776556776554,1833.6996336996335,1.0,6.46067057216883,154.78269458711972,-1.5267175572519083,1.9694656488549618,5.557251908396946,-0.856071964017991,0.06296851574212893,-0.4302848575712144,1528.937728937729,97.03114393335319,31.435817931551718,
1770985030870.2349,4.630434782608695,-5.83695652173913,2.4239130434782608,2.6714542190305206,-9.239976062238181,0.12447636146020347,4054.212454212454,1847.6190476190475,1.0,6.46067057216883,154.78269458711972,-0.5954198473282443,2.8396946564885495,4.854961832061068,-0.8515742128935532,0.04947526236881559,-0.4332833583208396,1386.080586080586,97.02829593952612,31.435817931551718,
1770985030889.766,4.641304347826087,-5.826086956521739,2.3043478260869565,2.7001795332136447,-9.223219628964692,0.052663076002393776,4036.6300366300366,1826.3736263736262,1.0,6.455565340582762,154.90510083036773,-0.2748091603053435,3.480916030534351,4.015267175572519,-0.8530734632683658,0.05397301349325337,-0.4332833583208396,1245.4212454212454,97.03114393335319,31.435817931551718,
1770985030909.297,4.630434782608695,-5.826086956521739,2.293478260869565,2.6882106523040097,-9.247157390783961,-0.04308797127468582,4032.234432234432,1807.3260073260071,1.0,6.450460108996694,155.02770083102493,0.22900763358778625,3.8931297709923665,1.7862595419847327,-0.8545727136431783,0.07346326836581708,-0.43778110944527737,1130.4029304029302,97.0254479484977,31.435817931551718,
1770985030928.8284,4.641304347826087,-5.815217391304348,2.1739130434782608,2.6906044284859365,-9.244763614602034,-0.05026929982046679,4055.6776556776554,1834.4322344322343,1.0,6.445354877410627,155.15049504950494,1.4198473282442747,3.9236641221374042,-0.41221374045801523,-0.8650674662668666,0.046476761619190406,-0.43478260869565216,1046.1538461538462,97.03114393335319,31.435817931551718,
1770985030948.3594,4.619565217391305,-5.826086956521739,2.152173913043478,2.6762417713943747,-9.18491921005386,-0.1436265709156194,4055.6776556776554,1842.4908424908424,1.0,6.445354877410627,155.15049504950494,2.1068702290076335,3.6030534351145036,-3.5572519083969465,-0.848575712143928,0.04947526236881559,-0.4332833583208396,1007.3260073260072,97.03114393335319,31.435817931551718,
1770985030967.8904,4.58695652173913,-6.0,2.0543478260869565,2.6355475763016156,-9.326152004787552,-0.2130460801915021,4035.164835164835,1819.047619047619,1.0,6.440249645824559,155.2734839476813,1.2519083969465647,3.49618320610687,-6.1679389312977095,-0.8545727136431783,0.047976011994003,-0.4332833583208396,1016.117216117216,97.0254479484977,31.435817931551718,
1770985030987.4216,4.565217391304348,-6.076086956521739,1.967391304347826,2.609216038300419,-9.488928785158587,-0.3399162178336326,4057.142857142857,1844.6886446886447,1.0,6.440249645824559,155.2734839476813,1.618320610687023,3.2213740458015265,-8.442748091603054,-0.8575712143928036,0.05697151424287856,-0.4302848575712144,1065.2014652014652,97.03114393335319,31.435817931551718,
1770985031006.9526,4.554347826086956,-6.228260869565217,1.9130434782608696,2.590065828845003,-9.608617594254937,-0.4069419509275883,4055.6776556776554,1845.4212454212452,1.0,6.435144414238491,155.39666798889328,1.6946564885496183,2.916030534351145,-10.412213740458014,-0.856071964017991,0.06146926536731634,-0.4467766116941529,1141.3919413919414,97.02829593952612,31.435817931551718,
1770985031026.484,4.554347826086956,-6.532608695652174,1.858695652173913,2.566128067025733,-9.874326750448834,-0.48114901256732495,4054.212454212454,1851.2820512820513,1.0,6.430039182652423,155.52004763795156,0.24427480916030533,2.4427480916030535,-11.618320610687022,-0.8590704647676162,0.06146926536731634,-0.43628185907046474,1219.7802197802198,97.03399192997894,31.435817931551718,
1770985031046.015,4.510869565217392,-6.728260869565217,1.8478260869565217,2.527827648114901,-10.17833632555356,-0.5266307600239377,4055.6776556776554,1847.6190476190475,1.0,6.424933951066355,155.64362336114422,-0.48854961832061067,1.7709923664122136,-12.82442748091603,-0.8620689655172413,0.05397301349325337,-0.43928035982008995,1270.3296703296703,97.03399192997894,31.435817931551718,
1770985031065.546,4.478260869565217,-6.728260869565217,1.826086956521739,2.527827648114901,-10.278874925194494,-0.5505685218432076,4036.6300366300366,1826.3736263736262,1.0,6.424933951066355,155.64362336114422,-0.33587786259541985,1.5725190839694656,-14.305343511450381,-0.8590704647676162,0.043478260869565216,-0.43178410794602695,1294.5054945054944,97.03114393335319,31.435817931551718,
1770985031085.0771,4.380434782608695,-6.532608695652174,1.891304347826087,2.4440454817474566,-10.108916816277677,-0.5098743267504489,4027.8388278388275,1803.6630036630036,1.0,6.419828719480288,155.76739562624255,0.33587786259541985,2.1068702290076335,-15.725190839694656,-0.8575712143928036,0.046476761619190406,-0.43928035982008995,1293.7728937728937,97.02829593952612,31.435817931551718,
1770985031104.6082,4.282608695652174,-6.282608695652174,2.0,2.317175344105326,-9.814482345900657,-0.3758228605625374,4055.6776556776554,1834.4322344322343,1.0,6.419828719480288,155.76739562624255,-0.22900763358778625,1.1450381679389312,-17.61832061068702,-0.8650674662668666,0.05247376311844078,-0.43928035982008995,1268.131868131868,97.03114393335319,31.435817931551718,
