Shimmer_A679_TimestampSync_Unix_CAL,Shimmer_A679_Accel_LN_X_CAL,Shimmer_A679_Accel_LN_Y_CAL,Shimmer_A679_Accel_LN_Z_CAL,Shimmer_A679_Accel_WR_X_CAL,Shimmer_A679_Accel_WR_Y_CAL,Shimmer_A679_Accel_WR_Z_CAL,Shimmer_A679_Battery_CAL,Shimmer_A679_Ext_Exp_A15_CAL,Shimmer_A679_GSR_Range_CAL,Shimmer_A679_GSR_Skin_Conductance_CAL,Shimmer_A679_GSR_Skin_Resistance_CAL,Shimmer_A679_Gyro_X_CAL,Shimmer_A679_Gyro_Y_CAL,Shimmer_A679_Gyro_Z_CAL,Shimmer_A679_Mag_X_CAL,Shimmer_A679_Mag_Y_CAL,Shimmer_A679_Mag_Z_CAL,Shimmer_A679_PPG_A13_CAL,Shimmer_A679_Pressure_BMP280_CAL,Shimmer_A679_Temperature_BMP280_CAL,Unnamed: 21
1770982165013.1316,4.630434782608695,-6.228260869565217,2.0978260869565215,2.6594853381208856,-9.649311789347696,-0.24655894673847994,4112.820512820513,1960.4395604395604,2.0,3.8908424908424912,257.01374505742797,-5.755725190839694,8.702290076335878,-4.885496183206107,-0.9160419790104948,0.08395802098950525,-0.47826086956521735,1054.212454212454,97.07863160866053,30.90819302536547,
1770982165032.6628,4.543478260869565,-6.173913043478261,2.2391304347826084,2.582884500299222,-9.589467384799521,-0.12208258527827648,4109.89010989011,1957.5091575091574,2.0,3.8952380952380956,256.72371638141806,-5.343511450381679,7.648854961832061,-6.2748091603053435,-0.9175412293853074,0.0914542728635682,-0.48425787106446777,1013.1868131868131,97.07704096654732,30.8981430582935,
1770982165052.1938,4.489130434782608,-6.228260869565217,2.1847826086956523,2.5302214242968284,-9.658886894075403,-0.13405146618791142,4112.820512820513,1963.3699633699632,2.0,3.8996336996337,256.4343415367274,-6.198473282442748,4.748091603053435,-8.320610687022901,-0.9220389805097451,0.08545727136431784,-0.46926536731634183,1048.3516483516482,97.07704096654732,30.8981430582935,
1770982165071.725,4.478260869565217,-6.119565217391304,2.2065217391304346,2.511071214841412,-9.587073608617594,-0.1172950329144225,4111.355311355311,1958.974358974359,2.0,3.9040293040293044,256.14561831488083,-4.763358778625954,2.3206106870229006,-10.99236641221374,-0.9175412293853074,0.07346326836581708,-0.48575712143928035,1134.7985347985348,97.07988661634276,30.8981430582935,
1770982165091.256,4.478260869565217,-6.0,2.2391304347826084,2.503889886295631,-9.388390185517654,-0.0933572710951526,4111.355311355311,1957.5091575091574,2.0,3.9084249084249088,255.8575445173383,-4.6106870229007635,2.213740458015267,-12.839694656488549,-0.9115442278860569,0.07196401799100449,-0.48275862068965514,1231.5018315018315,97.07704096654732,30.8981430582935,
1770982165110.787,4.434782608695652,-5.978260869565217,2.260869565217391,2.4608019150209457,-9.354877318970676,-0.047875523638539794,4111.355311355311,1957.5091575091574,2.0,3.9113553113553112,255.66585502903163,-5.801526717557252,2.259541984732824,-14.13740458015267,-0.9145427286356821,0.0944527736131934,-0.4872563718140929,1309.1575091575091,97.07134967533834,30.8981430582935,
1770982165130.3184,4.326086956521739,-6.010869565217392,2.293478260869565,2.357869539198085,-9.412327947336923,-0.031119090365050867,4087.912087912088,1925.2747252747251,2.0,3.915750915750916,255.37885874649203,-6.366412213740458,2.5343511450381677,-14.13740458015267,-0.9175412293853074,0.08845577211394302,-0.4932533733133433,1369.9633699633698,97.07419531954584,30.8981430582935,
1770982165149.8494,4.271739130434782,-6.032608695652174,2.282608695652174,2.264512268102932,-9.419509275882705,-0.031119090365050867,4086.4468864468863,1915.018315018315,2.0,3.9186813186813194,255.18788558609083,-6.625954198473282,2.030534351145038,-14.076335877862595,-0.9205397301349325,0.08995502248875561,-0.48425787106446777,1413.1868131868132,97.06565839530525,30.8981430582935,
1770982165169.3806,4.217391304347826,-6.032608695652174,2.260869565217391,2.1998803111909035,-9.43147815679234,-0.045481747456612806,4112.820512820513,1950.9157509157508,2.0,3.9230769230769234,254.9019607843137,-6.198473282442748,0.6717557251908397,-13.862595419847327,-0.9190404797601199,0.08545727136431784,-0.47826086956521735,1432.2344322344322,97.07704096654732,30.8981430582935,
1770982165188.9116,4.195652173913043,-6.043478260869565,2.282608695652174,2.190305206463196,-9.405146618791143,-0.019150209455415918,4111.355311355311,1954.5787545787543,2.0,3.928937728937729,254.52172291627818,-5.938931297709924,-0.916030534351145,-12.549618320610687,-0.9175412293853074,0.07496251874062969,-0.4737631184407796,1427.8388278388277,97.07134967533834,30.8981430582935,
1770982165208.4426,4.217391304347826,-6.054347826086956,2.282608695652174,2.1807301017354876,-9.450628366247756,-0.05026929982046679,4111.355311355311,1956.7765567765566,2.0,3.934798534798535,254.14261776205547,-5.358778625954198,-2.519083969465649,-10.687022900763358,-0.9220389805097451,0.07196401799100449,-0.48425787106446777,1405.8608058608058,97.07704096654732,30.8981430582935,
1770982165227.974,4.217391304347826,-5.989130434782608,2.3369565217391304,2.2046678635547576,-9.426690604428485,-0.031119090365050867,4109.89010989011,1956.7765567765566,2.0,3.93919413919414,253.85902919843778,-5.0534351145038165,-2.687022900763359,-8.931297709923664,-0.9235382308845577,0.06446776611694152,-0.48275862068965514,1372.161172161172,97.07134967533834,30.8981430582935,
1770982165247.505,4.184782608695652,-5.967391304347826,2.3478260869565215,2.1879114302812686,-9.345302214242968,0.016756433273488927,4111.355311355311,1956.7765567765566,2.0,3.945054945054945,253.48189415041782,-4.900763358778626,-2.8244274809160306,-6.687022900763359,-0.9265367316341829,0.08095952023988005,-0.47976011994003,1334.7985347985348,97.07134967533834,30.8981430582935,
1770982165267.036,4.163043478260869,-5.978260869565217,2.3369565217391304,2.17115499700778,-9.333333333333334,0.05026929982046679,4112.820512820513,1962.6373626373625,2.0,3.9494505494505496,253.19977740678908,-5.129770992366412,-2.1221374045801524,-4.748091603053435,-0.9280359820089955,0.08995502248875561,-0.48275862068965514,1298.9010989010987,97.06850403392481,30.8981430582935,
1770982165286.5671,4.141304347826087,-6.021739130434782,2.3260869565217392,2.1328545780969477,-9.409934171154998,0.040694195092758824,4087.912087912088,1926.7399267399267,2.0,3.952380952380953,253.01204819277106,-5.679389312977099,-2.900763358778626,-2.5801526717557253,-0.9190404797601199,0.08545727136431784,-0.4767616191904048,1260.8058608058607,97.07134967533834,30.8981430582935,
1770982165306.098,4.25,-6.032608695652174,2.358695652173913,2.1998803111909035,-9.438659485338121,0.040694195092758824,4084.981684981685,1909.1575091575091,2.0,3.9567765567765574,252.73097574523234,-4.916030534351145,-4.259541984732825,-0.32061068702290074,-0.9220389805097451,0.0704647676161919,-0.4737631184407796,1234.4322344322343,97.07134967533834,30.8981430582935,
1770982165325.6294,4.413043478260869,-6.043478260869565,2.4239130434782608,2.324356672651107,-9.448234590065828,0.11968880909634949,4112.820512820513,1949.4505494505493,2.0,3.9626373626373628,252.357182473655,-4.824427480916031,-5.511450381679389,0.732824427480916,-0.9280359820089955,0.07196401799100449,-0.46476761619190404,1228.5714285714284,97.07419531954584,30.8981430582935,
1770982165345.1604,4.478260869565217,-6.043478260869565,2.4456521739130435,2.4679832435667266,-9.443447037701974,0.1603830041891083,4111.355311355311,1954.5787545787543,2.0,3.967032967032967,252.0775623268698,-4.595419847328244,-5.404580152671755,2.2442748091603053,-0.9190404797601199,0.07496251874062969,-0.47826086956521735,1221.9780219780218,97.07704096654732,30.8981430582935,
1770982165364.6917,4.554347826086956,-6.065217391304348,2.391304347826087,2.558946738479952,-9.4721723518851,0.11968880909634949,4111.355311355311,1963.3699633699632,2.0,3.9699633699633696,251.89149289536815,-4.916030534351145,-4.381679389312977,3.709923664122137,-0.9265367316341829,0.08545727136431784,-0.4737631184407796,1216.8498168498168,97.07419531954584,30.8981430582935,
1770982165384.223,4.554347826086956,-6.065217391304348,2.3152173913043477,2.554159186116098,-9.46259724715739,0.019150209455415918,4109.89010989011,1958.2417582417581,2.0,3.972893772893773,251.70569795316246,-4.427480916030534,-2.8091603053435112,4.351145038167939,-0.9250374812593702,0.08395802098950525,-0.4752623688155922,1213.1868131868132,97.07134967533834,30.8981430582935,
1770982165403.7537,4.543478260869565,-6.0978260869565215,2.369565217391304,2.56852184320766,-9.481747456612807,0.01436265709156194,4087.912087912088,1925.2747252747251,2.0,3.977289377289378,251.4275188800884,-4.3206106870229,-1.1908396946564885,5.129770992366412,-0.9205397301349325,0.10344827586206896,-0.4872563718140929,1203.6630036630036,97.07419531954584,30.8981430582935,
1770982165423.285,4.532608695652174,-6.0978260869565215,2.369565217391304,2.56852184320766,-9.500897666068223,0.06223818073010173,4111.355311355311,1947.9853479853477,2.0,3.9802197802197803,251.24240750966317,-4.091603053435114,-1.3740458015267174,6.106870229007633,-0.9145427286356821,0.10344827586206896,-0.48575712143928035,1205.8608058608058,97.07134967533834,30.8981430582935,
1770982165442.816,4.576086956521739,-6.043478260869565,2.3369565217391304,2.570915619389587,-9.460203470975463,0.045481747456612806,4087.912087912088,1922.344322344322,2.0,3.9831501831501828,251.05756851204708,-3.7251908396946565,-1.9694656488549618,6.442748091603053,-0.9190404797601199,0.06596701649175413,-0.4752623688155922,1207.3260073260074,97.07704096654732,30.8981430582935,
1770982165462.347,4.630434782608695,-6.043478260869565,2.282608695652174,2.6403351286654697,-9.429084380610412,-0.011968880909634948,4083.5164835164833,1912.8205128205127,2.0,3.9875457875457876,250.7808194010656,-4.076335877862595,-3.1755725190839694,6.458015267175572,-0.9115442278860569,0.08395802098950525,-0.472263868065967,1211.7216117216117,97.06281275947967,30.8981430582935,
1770982165481.8782,4.6521739130434785,-6.010869565217392,2.293478260869565,2.7001795332136447,-9.41472172351885,-0.040694195092758824,4111.355311355311,1944.3223443223442,2.0,3.990476190476191,250.59665871121717,-3.7862595419847325,-3.312977099236641,5.801526717557252,-0.9235382308845577,0.08395802098950525,-0.4707646176911544,1230.03663003663,97.07988661634276,30.8981430582935,
1770982165501.4092,4.695652173913043,-5.956521739130435,2.282608695652174,2.748055056852184,-9.347695990424896,-0.047875523638539794,4109.89010989011,1952.3809523809523,2.0,3.9934065934065934,250.4127682993946,-2.748091603053435,-3.450381679389313,5.480916030534351,-0.9205397301349325,0.08095952023988005,-0.4707646176911544,1293.7728937728937,97.07704096654732,30.8981430582935,
1770982165520.9404,4.706521739130435,-5.945652173913043,2.2391304347826084,2.74326750448833,-9.32854578096948,-0.06941950927588271,4111.355311355311,1956.0439560439559,2.0,3.9978021978021974,250.13743815283124,-2.549618320610687,-2.5038167938931295,4.580152671755725,-0.9055472263868065,0.08395802098950525,-0.47826086956521735,1443.2234432234432,97.07134967533834,30.8981430582935,
1770982165540.4714,4.673913043478261,-5.945652173913043,2.260869565217391,2.724117295032914,-9.33572710951526,-0.07899461400359066,4111.355311355311,1956.7765567765566,2.0,4.003663003663004,249.77127172918574,-2.4427480916030535,-2.0763358778625953,4.015267175572519,-0.9145427286356821,0.07346326836581708,-0.47976011994003,1646.153846153846,97.07704096654732,30.8981430582935,
1770982165560.0024,4.684782608695652,-5.967391304347826,2.25,2.7336923997606224,-9.330939557151407,-0.08138839018551765,4111.355311355311,1957.5091575091574,2.0,4.010989010989011,249.31506849315068,-2.4122137404580153,-2.4732824427480917,3.0229007633587783,-0.9070464767616192,0.07496251874062969,-0.48125937031484256,1865.201465201465,97.07419531954584,30.8981430582935,
1770982165579.5337,4.695652173913043,-5.989130434782608,2.1956521739130435,2.7336923997606224,-9.364452423698385,-0.13165769000598443,4112.820512820513,1963.3699633699632,2.0,4.016849816849818,248.95130403064016,-2.8854961832061066,-2.916030534351145,2.427480916030534,-0.9055472263868065,0.08545727136431784,-0.472263868065967,2035.8974358974358,97.07988661634276,30.8981430582935,
1770982165599.0647,4.717391304347826,-5.978260869565217,2.1739130434782608,2.786355475763016,-9.3836026331538,-0.14602034709754638,4087.912087912088,1926.7399267399267,2.0,4.021245421245421,248.67917653488797,-2.7022900763358777,-3.3740458015267176,1.648854961832061,-0.9175412293853074,0.08245877061469264,-0.46926536731634183,2104.7619047619046,97.07988661634276,30.8981430582935,
1770982165618.596,4.739130434782608,-6.0,2.217391304347826,2.774386594853381,-9.381208856971872,-0.16517055655296228,4084.981684981685,1909.1575091575091,2.0,4.024175824175824,248.4980884762425,-2.900763358778626,-2.8854961832061066,0.9770992366412213,-0.9190404797601199,0.08395802098950525,-0.4767616191904048,2066.6666666666665,97.07704096654732,30.8981430582935,
1770982165638.127,4.760869565217392,-6.010869565217392,2.2391304347826084,2.795930580490724,-9.41472172351885,-0.10293237582286056,4109.89010989011,1942.8571428571427,2.0,4.027106227106227,248.31726396216118,-3.2213740458015265,-1.7099236641221374,-0.3053435114503817,-0.9130434782608695,0.08245877061469264,-0.4752623688155922,1940.6593406593406,97.07134967533834,30.8981430582935,
1770982165657.658,4.739130434782608,-6.021739130434782,2.25,2.793536804308797,-9.426690604428485,-0.07420706163973669,4109.89010989011,1951.6483516483515,2.0,4.03003663003663,248.13670241774224,-3.465648854961832,-1.297709923664122,-1.1603053435114503,-0.9145427286356821,0.10044977511244378,-0.4752623688155922,1756.7765567765566,97.08273226893219,30.8981430582935,
1770982165677.1892,4.695652173913043,-6.054347826086956,2.2065217391304346,2.7456612806702574,-9.448234590065828,-0.1172950329144225,4111.355311355311,1954.5787545787543,2.0,4.032967032967033,247.9564032697548,-4.366412213740458,-1.0687022900763359,-2.0610687022900764,-0.9100449775112444,0.07646176911544228,-0.4737631184407796,1541.3919413919414,97.07704096654732,30.8981430582935,
1770982165696.7202,4.684782608695652,-6.065217391304348,2.217391304347826,2.7217235188509874,-9.460203470975463,-0.10532615200478755,4109.89010989011,1955.311355311355,2.0,4.035897435897437,247.77636594663278,-3.7709923664122136,-1.1908396946564885,-2.8091603053435112,-0.9055472263868065,0.08695652173913043,-0.47976011994003,1338.4615384615383,97.07134967533834,30.8981430582935,
1770982165716.2517,4.641304347826087,-6.021739130434782,2.2717391304347827,2.7025733093955715,-9.433871932974267,-0.06702573309395571,4109.89010989011,1955.311355311355,2.0,4.037362637362637,247.6864452912357,-3.8625954198473282,-0.9312977099236641,-3.49618320610687,-0.9055472263868065,0.07646176911544228,-0.46926536731634183,1172.8937728937728,97.07419531954584,30.8981430582935,
1770982165735.7825,4.608695652173913,-5.967391304347826,2.260869565217391,2.6523040095751047,-9.364452423698385,-0.04308797127468582,4111.355311355311,1956.7765567765566,2.0,4.04029304029304,247.50679963735269,-3.16030534351145,-0.3969465648854962,-4.396946564885496,-0.9145427286356821,0.08095952023988005,-0.4737631184407796,1057.142857142857,97.07704096654732,30.8981430582935,
1770982165755.3137,4.565217391304348,-5.945652173913043,2.293478260869565,2.618791143028127,-9.314183123877918,-0.031119090365050867,4086.4468864468863,1923.8095238095236,2.0,4.043223443223443,247.32741438666426,-3.2061068702290076,0.47328244274809156,-4.519083969465648,-0.9100449775112444,0.07946026986506746,-0.46926536731634183,991.2087912087911,97.07988661634276,30.8981430582935,
1770982165774.8447,4.510869565217392,-5.967391304347826,2.3152173913043477,2.546977857570317,-9.347695990424896,-0.02154398563734291,4111.355311355311,1947.2527472527472,2.0,4.0446886446886445,247.23781923564573,-3.5267175572519083,0.9007633587786259,-4.244274809160305,-0.9145427286356821,0.07496251874062969,-0.4767616191904048,985.3479853479853,97.08273226893219,30.8981430582935,
1770982165794.3755,4.467391304347826,-5.989130434782608,2.3043478260869565,2.52064631956912,-9.395571514063436,0.0047875523638539795,4109.89010989011,1953.8461538461538,2.0,4.049084249084249,246.9694228333635,-3.5877862595419847,0.8702290076335878,-4.305343511450381,-0.9145427286356821,0.10494752623688156,-0.48425787106446777,1027.106227106227,97.07988661634276,30.8981430582935,
1770982165813.907,4.467391304347826,-6.032608695652174,2.293478260869565,2.503889886295631,-9.41472172351885,-0.0023937761819269898,4109.89010989011,1955.311355311355,2.0,4.05054945054945,246.88008681497558,-4.091603053435114,0.38167938931297707,-4.061068702290076,-0.9055472263868065,0.07346326836581708,-0.4767616191904048,1101.098901098901,97.07988661634276,30.8981430582935,
1770982165833.438,4.456521739130435,-6.032608695652174,2.3043478260869565,2.4895272292040693,-9.41472172351885,-0.03590664272890485,4083.5164835164833,1922.344322344322,2.0,4.052014652014652,246.79081540408606,-3.49618320610687,0.10687022900763359,-3.83206106870229,-0.9235382308845577,0.08395802098950525,-0.4767616191904048,1189.7435897435896,97.07134967533834,30.8981430582935,
1770982165852.969,4.5,-6.032608695652174,2.282608695652174,2.5014961101137043,-9.412327947336923,-0.026331538001196888,4111.355311355311,1947.2527472527472,2.0,4.052014652014652,246.79081540408606,-3.3740458015267176,-0.32061068702290074,-3.5572519083969465,-0.9100449775112444,0.08245877061469264,-0.4707646176911544,1272.5274725274724,97.07704096654732,30.8981430582935,
1770982165872.5002,4.510869565217392,-6.021739130434782,2.3152173913043477,2.511071214841412,-9.405146618791143,-0.031119090365050867,4111.355311355311,1954.5787545787543,2.0,4.053479853479853,246.7016085306344,-2.900763358778626,-0.3511450381679389,-3.2519083969465647,-0.9160419790104948,0.08095952023988005,-0.472263868065967,1331.8681318681317,97.07988661634276,30.8981430582935,
1770982165892.0312,4.5,-5.967391304347826,2.282608695652174,2.556552962298025,-9.369239976062238,-0.011968880909634948,4111.355311355311,1956.0439560439559,2.0,4.054945054945055,246.61246612466127,-2.916030534351145,-0.061068702290076333,-2.595419847328244,-0.9100449775112444,0.06896551724137931,-0.46926536731634183,1368.4981684981683,97.07419531954584,30.8981430582935,
1770982165911.5625,4.521739130434782,-5.956521739130435,2.3152173913043477,2.539796529024536,-9.340514661879114,-0.011968880909634948,4087.912087912088,1925.2747252747251,2.0,4.056410256410255,246.5233881163085,-3.312977099236641,0.366412213740458,-2.519083969465649,-0.9130434782608695,0.08095952023988005,-0.48275862068965514,1379.4871794871794,97.07988661634276,30.8981430582935,
1770982165931.0935,4.521739130434782,-5.967391304347826,2.293478260869565,2.556552962298025,-9.352483542788748,-0.026331538001196888,4112.820512820513,1953.8461538461538,2.0,4.056410256410255,246.5233881163085,-3.5267175572519083,0.8244274809160305,-2.229007633587786,-0.9175412293853074,0.07496251874062969,-0.4872563718140929,1375.8241758241757,97.07419531954584,30.8981430582935,
1770982165950.6245,4.532608695652174,-6.010869565217392,2.2717391304347827,2.542190305206463,-9.381208856971872,-0.045481747456612806,4111.355311355311,1956.0439560439559,2.0,4.057875457875458,246.43437443581874,-3.679389312977099,1.3740458015267174,-1.8473282442748091,-0.9280359820089955,0.07196401799100449,-0.47976011994003,1368.4981684981683,97.07704096654732,30.8981430582935,
1770982165970.1558,4.543478260869565,-6.021739130434782,2.2391304347826084,2.563734290843806,-9.42429682824656,-0.06941950927588271,4109.89010989011,1956.0439560439559,2.0,4.057875457875458,246.43437443581874,-4.045801526717557,0.8854961832061068,-1.7862595419847327,-0.9115442278860569,0.08245877061469264,-0.4767616191904048,1346.5201465201465,97.07704096654732,30.8981430582935,
1770982165989.6868,4.58695652173913,-6.076086956521739,2.2391304347826084,2.6307600239377615,-9.460203470975463,-0.08138839018551765,4111.355311355311,1956.7765567765566,2.0,4.059340659340659,246.34542501353548,-3.8931297709923665,0.41221374045801523,-1.6030534351145038,-0.9145427286356821,0.07796101949025487,-0.46926536731634183,1309.1575091575091,97.07419531954584,30.8981430582935,
1770982166009.2178,4.630434782608695,-6.021739130434782,2.260869565217391,2.6546977857570315,-9.441053261520048,-0.08617594254937164,4111.355311355311,1956.7765567765566,2.0,4.060805860805861,246.2565397799026,-3.8625954198473282,0.8549618320610687,-1.6030534351145038,-0.9160419790104948,0.07796101949025487,-0.4737631184407796,1268.8644688644688,97.07704096654732,30.8981430582935,
1770982166028.749,4.5978260869565215,-5.934782608695652,2.3260869565217392,2.6858168761220824,-9.385996409335727,-0.019150209455415918,4111.355311355311,1956.7765567765566,2.0,4.062271062271062,246.1677186654644,-3.8167938931297707,1.3129770992366412,-1.4961832061068703,-0.9160419790104948,0.0944527736131934,-0.47826086956521735,1239.5604395604396,97.07783628632248,30.903168041683966,
1770982166048.28,4.630434782608695,-5.9021739130434785,2.293478260869565,2.6618791143028124,-9.316576900059845,0.00718132854578097,4111.355311355311,1956.7765567765566,2.0,4.062271062271062,246.1677186654644,-4.916030534351145,1.83206106870229,-1.9236641221374045,-0.9220389805097451,0.06746626686656672,-0.46926536731634183,1213.1868131868132,97.07783628632248,30.903168041683966,
1770982166067.8113,4.641304347826087,-5.880434782608695,2.2282608695652173,2.6762417713943747,-9.26391382405745,-0.07420706163973669,4089.377289377289,1931.135531135531,2.0,4.065201465201465,245.9902685168499,-5.175572519083969,2.4427480916030535,-1.7862595419847327,-0.9175412293853074,0.07796101949025487,-0.4767616191904048,1196.3369963369962,97.07783628632248,30.903168041683966,
1770982166087.3423,4.630434782608695,-5.9021739130434785,2.25,2.6834230999401556,-9.273488928785158,-0.08378216636744464,4112.820512820513,1956.0439560439559,2.0,4.066666666666666,245.90163934426232,-5.770992366412213,3.16030534351145,-1.7404580152671756,-0.9130434782608695,0.08845577211394302,-0.4677661169415292,1190.4761904761904,97.07499061618739,30.903168041683966,
1770982166106.8733,4.695652173913043,-5.967391304347826,2.2717391304347827,2.6929982046678633,-9.330939557151407,-0.05505685218432076,4114.285714285714,1957.5091575091574,2.0,4.066666666666666,245.90163934426232,-5.847328244274809,3.9083969465648853,-1.66412213740458,-0.9130434782608695,0.07496251874062969,-0.46326836581709147,1196.3369963369962,97.08352763497467,30.903168041683966,
1770982166126.4043,4.684782608695652,-5.989130434782608,2.3260869565217392,2.7169359664871333,-9.371633752244165,-0.016756433273488927,4111.355311355311,1957.5091575091574,2.0,4.068131868131869,245.81307401404646,-6.183206106870228,4.534351145038168,-0.9770992366412213,-0.9115442278860569,0.07196401799100449,-0.48425787106446777,1203.6630036630036,97.07783628632248,30.903168041683966,
1770982166145.9355,4.673913043478261,-5.967391304347826,2.293478260869565,2.7121484141232792,-9.374027528426092,-0.011968880909634948,4112.820512820513,1963.3699633699632,2.0,4.068131868131869,245.81307401404646,-6.381679389312977,5.358778625954198,-0.6412213740458015,-0.9130434782608695,0.09895052473763118,-0.472263868065967,1208.058608058608,97.08068195925155,30.903168041683966,
1770982166165.4668,4.663043478260869,-5.967391304347826,2.282608695652174,2.6762417713943747,-9.35966487133453,-0.0047875523638539795,4112.820512820513,1964.8351648351647,2.0,4.068131868131869,245.81307401404646,-6.717557251908397,6.305343511450381,-0.8244274809160305,-0.9145427286356821,0.06596701649175413,-0.472263868065967,1210.989010989011,97.07783628632248,30.903168041683966,
1770982166184.9978,4.695652173913043,-5.913043478260869,2.3043478260869565,2.7456612806702574,-9.290245362058647,-0.016756433273488927,4111.355311355311,1958.974358974359,2.0,4.068131868131869,245.81307401404646,-6.793893129770992,6.061068702290076,-0.9770992366412213,-0.9145427286356821,0.08095952023988005,-0.4677661169415292,1215.3846153846152,97.07214494884636,30.903168041683966,
1770982166204.5288,4.717391304347826,-5.83695652173913,2.293478260869565,2.750448833034111,-9.220825852782765,-0.04308797127468582,4111.355311355311,1957.5091575091574,2.0,4.068131868131869,245.81307401404646,-6.6106870229007635,6.015267175572519,-1.0229007633587786,-0.9145427286356821,0.07796101949025487,-0.4677661169415292,1253.4798534798533,97.07783628632248,30.903168041683966,
1770982166224.06,4.717391304347826,-5.815217391304348,2.293478260869565,2.7672052663076,-9.196888090963494,-0.00718132854578097,4087.912087912088,1925.2747252747251,2.0,4.068131868131869,245.81307401404646,-6.8396946564885495,6.564885496183206,-1.6335877862595418,-0.9175412293853074,0.07946026986506746,-0.4767616191904048,1361.904761904762,97.07783628632248,30.903168041683966,
1770982166243.591,4.75,-5.858695652173913,2.3043478260869565,2.7767803710353083,-9.223219628964692,-0.00718132854578097,4112.820512820513,1953.8461538461538,2.0,4.068131868131869,245.81307401404646,-7.786259541984733,7.2824427480916025,-2.198473282442748,-0.9145427286356821,0.08245877061469264,-0.47976011994003,1536.263736263736,97.07499061618739,30.903168041683966,
1770982166263.1223,4.75,-5.83695652173913,2.3043478260869565,2.783961699581089,-9.223219628964692,-0.009575104727707959,4112.820512820513,1961.9047619047617,2.0,4.068131868131869,245.81307401404646,-8.015267175572518,8.198473282442748,-2.5038167938931295,-0.9130434782608695,0.07346326836581708,-0.4752623688155922,1727.4725274725274,97.0664536225463,30.903168041683966,
1770982166282.6533,4.75,-5.815217391304348,2.260869565217391,2.786355475763016,-9.211250748055056,-0.045481747456612806,4109.89010989011,1958.2417582417581,2.0,4.066666666666666,245.90163934426232,-8.702290076335878,9.648854961832061,-2.6564885496183206,-0.9205397301349325,0.08995502248875561,-0.4752623688155922,1877.6556776556774,97.07214494884636,30.903168041683966,
1770982166302.1843,4.760869565217392,-5.826086956521739,2.260869565217391,2.805505685218432,-9.213644524236983,-0.12208258527827648,4111.355311355311,1957.5091575091574,2.0,4.065201465201465,245.9902685168499,-8.82442748091603,10.793893129770993,-2.198473282442748,-0.9115442278860569,0.09295352323838081,-0.4767616191904048,1968.4981684981683,97.07783628632248,30.903168041683966,
1770982166321.7156,4.782608695652174,-5.8478260869565215,2.2391304347826084,2.827049670855775,-9.237582286056254,-0.07660083782166367,4111.355311355311,1957.5091575091574,2.0,4.065201465201465,245.9902685168499,-9.633587786259541,12.244274809160306,-2.1221374045801524,-0.9190404797601199,0.08095952023988005,-0.46476761619190404,1982.4175824175823,97.07499061618739,30.903168041683966,
1770982166341.2466,4.760869565217392,-5.728260869565217,2.260869565217391,2.807899461400359,-9.132256134051467,-0.07899461400359066,4109.89010989011,1956.7765567765566,2.0,4.0637362637362635,246.07896160086534,-9.893129770992367,14.015267175572518,-2.1374045801526718,-0.9220389805097451,0.07796101949025487,-0.4707646176911544,1912.8205128205127,97.07214494884636,30.903168041683966,
1770982166360.7776,4.771739130434782,-5.641304347826087,2.217391304347826,2.810293237582286,-9.012567324955116,-0.09814482345900657,4111.355311355311,1956.7765567765566,2.0,4.0637362637362635,246.07896160086534,-10.442748091603052,14.99236641221374,-2.3664122137404577,-0.9280359820089955,0.0704647676161919,-0.47976011994003,1764.102564102564,97.07214494884636,30.903168041683966,
1770982166380.3088,4.804347826086956,-5.673913043478261,2.1956521739130435,2.848593656493118,-9.014961101137043,-0.1436265709156194,4087.912087912088,1917.9487179487178,2.0,4.0637362637362635,246.07896160086534,-11.389312977099236,15.84732824427481,-2.16793893129771,-0.9190404797601199,0.06896551724137931,-0.48275862068965514,1581.6849816849815,97.07499061618739,30.903168041683966,
1770982166399.8398,4.8478260869565215,-5.695652173913043,2.2065217391304346,2.9204069419509273,-9.070017953321365,-0.14841412327947337,4112.820512820513,1951.6483516483515,2.0,4.062271062271062,246.1677186654644,-12.916030534351144,16.732824427480914,-2.564885496183206,-0.9160419790104948,0.08995502248875561,-0.4752623688155922,1386.8131868131868,97.07783628632248,30.903168041683966,
1770982166419.371,4.891304347826087,-5.771739130434782,2.217391304347826,2.9587073608617596,-9.081986834231,-0.11490125673249552,4111.355311355311,1955.311355311355,2.0,4.062271062271062,246.1677186654644,-14.274809160305344,18.77862595419847,-2.2900763358778624,-0.9145427286356821,0.07496251874062969,-0.4662668665667166,1205.8608058608058,97.08352763497467,30.903168041683966,
1770982166438.902,4.9021739130434785,-5.815217391304348,2.2065217391304346,2.9778575703171755,-9.163375224416518,-0.09814482345900657,4111.355311355311,1956.0439560439559,2.0,4.062271062271062,246.1677186654644,-15.251908396946565,21.48091603053435,-1.618320610687023,-0.9295352323838081,0.08395802098950525,-0.4707646176911544,1054.212454212454,97.07783628632248,30.903168041683966,
1770982166458.433,4.891304347826087,-5.793478260869565,2.1739130434782608,2.9922202274087373,-9.16816277678037,-0.1436265709156194,4112.820512820513,1962.6373626373625,2.0,4.060805860805861,246.2565397799026,-15.83206106870229,23.877862595419845,-1.6335877862595418,-0.9280359820089955,0.07796101949025487,-0.46326836581709147,962.6373626373626,97.07783628632248,30.903168041683966,
1770982166477.9644,4.913043478260869,-5.804347826086956,2.25,2.9611011370436864,-9.151406343506881,-0.11011370436864153,4109.89010989011,1958.2417582417581,2.0,4.060805860805861,246.2565397799026,-16.366412213740457,27.053435114503817,-1.3893129770992365,-0.9265367316341829,0.07946026986506746,-0.4767616191904048,931.1355311355311,97.07783628632248,30.903168041683966,
1770982166497.4954,4.945652173913043,-5.815217391304348,2.3260869565217392,2.98982645122681,-9.172950329144225,-0.033512866546977854,4109.89010989011,1956.7765567765566,2.0,4.059340659340659,246.34542501353548,-16.50381679389313,28.12213740458015,-2.5038167938931295,-0.9220389805097451,0.06746626686656672,-0.4737631184407796,954.5787545787546,97.08352763497467,30.903168041683966,
1770982166517.0266,4.978260869565217,-5.858695652173913,2.3369565217391304,3.047277079593058,-9.211250748055056,0.023937761819269897,4111.355311355311,1956.7765567765566,2.0,4.057875457875458,246.43437443581874,-16.870229007633586,28.442748091603054,-3.312977099236641,-0.9265367316341829,0.06596701649175413,-0.4767616191904048,1021.2454212454212,97.08068195925155,30.903168041683966,
1770982166536.5576,4.989130434782608,-5.869565217391304,2.3260869565217392,3.049670855774985,-9.254338719329743,0.06223818073010173,4087.912087912088,1925.2747252747251,2.0,4.056410256410255,246.5233881163085,-15.618320610687022,28.29007633587786,-4.809160305343512,-0.9250374812593702,0.07946026986506746,-0.4707646176911544,1125.2747252747251,97.07783628632248,30.903168041683966,
1770982166556.0886,5.010869565217392,-5.815217391304348,2.2717391304347827,3.078396169958109,-9.239976062238181,-0.00718132854578097,4112.820512820513,1953.8461538461538,2.0,4.056410256410255,246.5233881163085,-13.709923664122137,27.862595419847327,-6.793893129770992,-0.9235382308845577,0.08095952023988005,-0.48275862068965514,1232.2344322344322,97.07783628632248,30.903168041683966,
1770982166575.62,5.010869565217392,-5.782608695652174,2.2717391304347827,3.0951526032315977,-9.151406343506881,-0.023937761819269897,4111.355311355311,1956.7765567765566,2.0,4.054945054945055,246.61246612466127,-12.183206106870228,27.404580152671755,-9.633587786259541,-0.9340329835082458,0.07346326836581708,-0.48275862068965514,1320.14652014652,97.07783628632248,30.903168041683966,
1770982166595.151,5.0,-5.760869565217392,2.2717391304347827,3.0999401555954518,-9.13704368641532,0.00718132854578097,4109.89010989011,1956.0439560439559,2.0,4.054945054945055,246.61246612466127,-10.763358778625953,25.61832061068702,-13.32824427480916,-0.9280359820089955,0.07796101949025487,-0.4872563718140929,1373.6263736263736,97.07214494884636,30.903168041683966,
1770982166614.682,4.934782608695652,-5.782608695652174,2.282608695652174,3.030520646319569,-9.16098144823459,-0.023937761819269897,4112.820512820513,1963.3699633699632,2.0,4.053479853479853,246.7016085306344,-9.618320610687023,22.3206106870229,-17.587786259541986,-0.9355322338830584,0.06596701649175413,-0.4677661169415292,1397.8021978021977,97.07499061618739,30.903168041683966,
1770982166634.2131,4.945652173913043,-5.782608695652174,2.2065217391304346,3.020945541591861,-9.16816277678037,-0.0718132854578097,4112.820512820513,1964.8351648351647,2.0,4.052014652014652,246.79081540408606,-8.534351145038167,19.068702290076335,-21.69465648854962,-0.9310344827586207,0.06596701649175413,-0.4872563718140929,1401.4652014652013,97.08352763497467,30.903168041683966,
1770982166653.744,4.880434782608695,-5.83695652173913,2.108695652173913,2.963494913225613,-9.230400957510472,-0.19389587073608616,4111.355311355311,1958.974358974359,2.0,4.05054945054945,246.88008681497558,-7.83206106870229,15.053435114503817,-25.954198473282442,-0.9355322338830584,0.06896551724137931,-0.48125937031484256,1385.3479853479853,97.07214494884636,30.903168041683966,
1770982166673.2754,4.83695652173913,-5.8478260869565215,2.0978260869565215,2.9156193895870737,-9.223219628964692,-0.22501496110113703,4114.285714285714,1958.2417582417581,2.0,4.049084249084249,246.9694228333635,-6.641221374045801,11.083969465648854,-28.99236641221374,-0.9340329835082458,0.07196401799100449,-0.47976011994003,1342.8571428571427,97.07214494884636,30.903168041683966,
1770982166692.8064,4.83695652173913,-5.804347826086956,2.0,2.889287851585877,-9.194494314781569,-0.3207660083782166,4089.377289377289,1931.135531135531,2.0,4.0476190476190474,247.05882352941177,-6.045801526717557,7.1603053435114505,-31.64885496183206,-0.9355322338830584,0.07346326836581708,-0.47826086956521735,1284.9816849816848,97.08352763497467,30.903168041683966,
1770982166712.3376,4.826086956521739,-5.923913043478261,1.8695652173913042,2.9251944943147814,-9.273488928785158,-0.43087971274685816,4114.285714285714,1950.9157509157508,2.0,4.046153846153846,247.14828897338404,-6.183206106870228,5.206106870229007,-32.88549618320611,-0.9460269865067465,0.07196401799100449,-0.472263868065967,1244.6886446886447,97.07783628632248,30.903168041683966,
1770982166731.869,4.771739130434782,-5.978260869565217,1.8695652173913042,2.860562537402753,-9.330939557151407,-0.5026929982046678,4112.820512820513,1961.172161172161,2.0,4.0446886446886445,247.23781923564573,-6.152671755725191,2.900763358778626,-33.00763358778626,-0.9475262368815592,0.06296851574212893,-0.49025487256371814,1218.3150183150183,97.07214494884636,30.903168041683966,
1770982166751.3997,4.793478260869565,-5.956521739130435,1.8695652173913042,2.834230999401556,-9.352483542788748,-0.4907241172950329,4109.89010989011,1957.5091575091574,2.0,4.043223443223443,247.32741438666426,-6.916030534351145,2.1374045801526718,-32.3206106870229,-0.9535232383808095,0.07646176911544228,-0.4737631184407796,1194.1391941391942,97.08068195925155,30.903168041683966,
1770982166770.931,4.804347826086956,-5.934782608695652,2.010869565217391,2.853381208856972,-9.32854578096948,-0.3973668461998803,4112.820512820513,1963.3699633699632,2.0,4.04029304029304,247.50679963735269,-8.351145038167939,2.351145038167939,-30.030534351145036,-0.952023988005997,0.05547226386806597,-0.4737631184407796,1189.7435897435896,97.08068195925155,30.903168041683966,
1770982166790.462,4.75,-5.934782608695652,2.108695652173913,2.7887492519449433,-9.32854578096948,-0.21543985637342908,4112.820512820513,1965.5677655677655,2.0,4.04029304029304,247.50679963735269,-9.099236641221374,0.8549618320610687,-27.32824427480916,-0.952023988005997,0.05997001499250375,-0.4767616191904048,1200.7326007326008,97.07214494884636,30.903168041683966,
1770982166809.993,4.793478260869565,-5.945652173913043,1.934782608695652,2.810293237582286,-9.357271095152603,-0.3997606223818073,4112.820512820513,1965.5677655677655,2.0,4.04029304029304,247.50679963735269,-8.549618320610687,-4.045801526717557,-24.47328244274809,-0.95952023988006,0.06296851574212893,-0.4767616191904048,1207.3260073260074,97.07783628632248,30.903168041683966,
1770982166829.5242,4.858695652173913,-6.032608695652174,1.75,2.836624775583483,-9.37642130460802,-0.5529622980251346,4112.820512820513,1965.5677655677655,2.0,4.038827838827839,247.59658987846908,-6.625954198473282,-6.885496183206107,-21.832061068702288,-0.952023988005997,0.05847076461769115,-0.4752623688155922,1218.3150183150183,97.07783628632248,30.903168041683966,
1770982166849.0552,5.0,-6.0,1.8152173913043477,2.9778575703171755,-9.419509275882705,-0.6319569120287253,4089.377289377289,1933.3333333333333,2.0,4.035897435897437,247.77636594663278,-4.961832061068702,-8.763358778625953,-19.374045801526716,-0.9565217391304347,0.047976011994003,-0.4767616191904048,1238.8278388278388,97.07214494884636,30.903168041683966,
1770982166868.5864,5.130434782608695,-5.934782608695652,1.9456521739130435,3.1406343506882104,-9.371633752244165,-0.48354278874925194,4114.285714285714,1950.9157509157508,2.0,4.034432234432234,247.8663519157436,-4.564885496183206,-10.061068702290076,-17.709923664122137,-0.9550224887556221,0.05247376311844078,-0.47826086956521735,1257.142857142857,97.07783628632248,30.903168041683966,
1770982166888.1174,5.173913043478261,-5.913043478260869,1.967391304347826,3.269898264512268,-9.323758228605625,-0.38300418910831835,4114.285714285714,1956.0439560439559,2.0,4.032967032967033,247.9564032697548,-5.755725190839694,-9.83206106870229,-16.641221374045802,-0.9535232383808095,0.050974512743628186,-0.4737631184407796,1305.4945054945053,97.07783628632248,30.903168041683966,
1770982166907.6484,5.173913043478261,-5.869565217391304,1.9891304347826086,3.274685816876122,-9.275882704967085,-0.38539796529024534,4108.424908424908,1950.18315018315,2.0,4.031501831501831,248.0465200799564,-7.374045801526718,-8.045801526717558,-16.62595419847328,-0.9550224887556221,0.05847076461769115,-0.4662668665667166,1396.3369963369962,97.07783628632248,30.903168041683966,
1770982166927.1797,5.1521739130434785,-5.815217391304348,1.9565217391304348,3.2675044883303412,-9.235188509874327,-0.38061041292639136,4114.285714285714,1956.0439560439559,2.0,4.03003663003663,248.13670241774224,-8.16793893129771,-7.66412213740458,-17.34351145038168,-0.9610194902548725,0.05847076461769115,-0.4707646176911544,1540.6593406593406,97.08068195925155,30.903168041683966,
1770982166946.7107,5.173913043478261,-5.760869565217392,1.9021739130434783,3.253141831238779,-9.163375224416518,-0.457211250748055,4112.820512820513,1963.3699633699632,2.0,4.0285714285714285,248.22695035460993,-8.16793893129771,-8.534351145038167,-18.259541984732824,-0.9670164917541229,0.06896551724137931,-0.4767616191904048,1739.194139194139,97.07783628632248,30.903168041683966,
1770982166966.242,5.141304347826087,-5.8478260869565215,1.7608695652173914,3.2363853979652903,-9.180131657690005,-0.5481747456612807,4112.820512820513,1964.8351648351647,2.0,4.0256410256410255,248.40764331210192,-7.3893129770992365,-10.061068702290076,-17.877862595419845,-0.9670164917541229,0.047976011994003,-0.46176911544227883,1943.5897435897434,97.08352763497467,30.903168041683966,
1770982166985.773,5.0978260869565215,-5.913043478260869,1.7282608695652173,3.1837223219628963,-9.28785158587672,-0.6367444643925793,4112.820512820513,1965.5677655677655,2.0,4.024175824175824,248.4980884762425,-6.015267175572519,-12.045801526717558,-16.412213740458014,-0.9565217391304347,0.038980509745127435,-0.4662668665667166,2084.981684981685,97.07783628632248,30.903168041683966,
1770982167005.304,5.076086956521739,-5.913043478260869,1.7826086956521738,3.1741472172351886,-9.28785158587672,-0.6175942549371634,4089.377289377289,1933.3333333333333,2.0,4.022710622710623,248.58859952649792,-4.366412213740458,-15.221374045801527,-14.244274809160304,-0.9640179910044977,0.046476761619190406,-0.46026986506746626,2133.333333333333,97.07499061618739,30.903168041683966,
1770982167024.8352,5.0978260869565215,-5.8478260869565215,1.8695652173913042,3.2004787552363854,-9.254338719329743,-0.5505685218432076,4112.820512820513,1956.7765567765566,2.0,4.01978021978022,248.76981957353746,-4.702290076335878,-16.77862595419847,-11.81679389312977,-0.9700149925037481,0.05847076461769115,-0.46026986506746626,2079.120879120879,97.07419531954584,30.8981430582935,
1770982167044.3662,5.1521739130434785,-5.815217391304348,1.7717391304347825,3.2483542788749253,-9.20885697187313,-0.5385996409335727,4111.355311355311,1956.7765567765566,2.0,4.018315018315017,248.8605287146764,-5.343511450381679,-17.61832061068702,-8.320610687022901,-0.9610194902548725,0.05397301349325337,-0.4497751124437781,1942.124542124542,97.07419531954584,30.8981430582935,
1770982167063.8977,5.195652173913043,-5.815217391304348,1.6956521739130435,3.272292040694195,-9.182525433871932,-0.6391382405745063,4106.959706959707,1954.5787545787543,2.0,4.015384615384615,249.04214559386975,-5.511450381679389,-18.183206106870227,-6.137404580152672,-0.9655172413793103,0.05247376311844078,-0.4587706146926537,1767.7655677655675,97.07134967533834,30.8981430582935,
1770982167083.4285,5.282608695652174,-5.793478260869565,1.717391304347826,3.33213644524237,-9.189706762417714,-0.6654697785757031,4084.981684981685,1916.4835164835163,2.0,4.013919413919414,249.13305347691184,-5.022900763358779,-18.793893129770993,-3.7709923664122136,-0.9700149925037481,0.05247376311844078,-0.4542728635682159,1580.9523809523807,97.07704096654732,30.8981430582935,
1770982167102.9597,5.293478260869565,-5.760869565217392,1.7282608695652173,3.3632555356074207,-9.149012567324954,-0.6606822262118491,4109.89010989011,1945.054945054945,2.0,4.010989010989011,249.31506849315068,-4.122137404580153,-19.34351145038168,-0.9770992366412213,-0.9655172413793103,0.041979010494752625,-0.45577211394302847,1391.9413919413919,97.07704096654732,30.8981430582935,
1770982167122.4907,5.33695652173913,-5.684782608695652,1.717391304347826,3.4135248354278875,-9.053261520047876,-0.6247755834829444,4087.912087912088,1920.8791208791208,2.0,4.0095238095238095,249.4061757719715,-3.801526717557252,-19.862595419847327,1.8625954198473282,-0.9610194902548725,0.0704647676161919,-0.45727136431784104,1234.4322344322343,97.07988661634276,30.8981430582935,
1770982167142.0215,5.391304347826087,-5.663043478260869,1.6956521739130435,3.480550568521843,-9.026929982046678,-0.6582884500299222,4111.355311355311,1946.5201465201465,2.0,4.008058608058608,249.4973496618534,-2.854961832061069,-20.30534351145038,4.564885496183206,-0.9550224887556221,0.043478260869565216,-0.4407796101949025,1124.5421245421244,97.07704096654732,30.8981430582935,
1770982167161.553,5.456521739130435,-5.6521739130434785,1.6739130434782608,3.5547576301615798,-9.019748653500898,-0.6822262118491921,4087.912087912088,1921.6117216117216,2.0,4.006593406593407,249.58859023587493,-2.763358778625954,-20.77862595419847,6.961832061068702,-0.9460269865067465,0.050974512743628186,-0.45277361319340326,1062.2710622710622,97.07988661634276,30.8981430582935,
1770982167181.084,5.521739130434782,-5.608695652173913,1.7391304347826086,3.6385397965290243,-8.967085577498503,-0.6367444643925793,4112.820512820513,1953.113553113553,2.0,4.005128205128205,249.6798975672215,-2.5801526717557253,-21.114503816793892,8.854961832061068,-0.9535232383808095,0.05397301349325337,-0.43778110944527737,1054.212454212454,97.07704096654732,30.8981430582935,
1770982167200.615,5.554347826086956,-5.619565217391304,1.717391304347826,3.693596648713345,-8.959904248952723,-0.6630760023937762,4111.355311355311,1955.311355311355,2.0,4.003663003663004,249.77127172918574,-2.4732824427480917,-21.81679389312977,11.007633587786259,-0.9505247376311844,0.050974512743628186,-0.4467766116941529,1086.4468864468863,97.07704096654732,30.8981430582935,
1770982167220.1462,5.663043478260869,-5.6521739130434785,1.641304347826087,3.7965290245362056,-9.036505086774387,-0.7324955116696589,4105.494505494506,1948.7179487179485,2.0,4.000732600732601,249.95422083867425,-2.8244274809160306,-22.259541984732824,12.610687022900763,-0.9505247376311844,0.046476761619190406,-0.4467766116941529,1149.4505494505493,97.07988661634276,30.8981430582935,
1770982167239.6772,5.771739130434782,-5.717391304347826,1.5978260869565217,3.8707360861759423,-9.084380610412927,-0.7540394973070018,4111.355311355311,1954.5787545787543,2.0,3.9978021978021974,250.13743815283124,-1.9541984732824427,-22.3206106870229,14.13740458015267,-0.9550224887556221,0.04047976011994003,-0.4482758620689655,1231.5018315018315,97.07988661634276,30.8981430582935,
1770982167259.2085,5.891304347826087,-5.728260869565217,1.6195652173913042,4.007181328545781,-9.091561938958707,-0.7899461400359066,4111.355311355311,1956.7765567765566,2.0,3.996336996336996,250.22914757103575,-1.114503816793893,-20.549618320610687,15.17557251908397,-0.9505247376311844,0.050974512743628186,-0.4467766116941529,1312.087912087912,97.07134967533834,30.8981430582935,
1770982167278.7395,5.978260869565217,-5.728260869565217,1.641304347826087,4.098144823459006,-9.105924596050269,-0.7779772591262717,4109.89010989011,1956.7765567765566,2.0,3.9934065934065934,250.4127682993946,-0.6564885496183206,-18.137404580152673,15.633587786259541,-0.9430284857571214,0.05397301349325337,-0.4407796101949025,1380.2197802197802,97.07988661634276,30.8981430582935,
1770982167298.2705,6.0,-5.684782608695652,1.5978260869565217,4.2034709754637944,-9.07241172950329,-0.7731897067624177,4111.355311355311,1957.5091575091574,2.0,3.9919413919413924,250.5046797577537,-0.4580152671755725,-15.343511450381678,15.038167938931297,-0.944527736131934,0.06446776611694152,-0.4542728635682159,1428.5714285714284,97.07988661634276,30.8981430582935,
1770982167317.8018,6.010869565217392,-5.630434782608695,1.5543478260869565,4.205864751645721,-9.022142429682825,-0.8067025733093955,4087.912087912088,1924.5421245421244,2.0,3.990476190476191,250.59665871121717,0.061068702290076333,-13.450381679389313,14.48854961832061,-0.9385307346326837,0.05997001499250375,-0.43178410794602695,1444.6886446886447,97.07134967533834,30.8981430582935,
1770982167337.3328,6.054347826086956,-5.641304347826087,1.5434782608695652,4.196289646918013,-9.019748653500898,-0.8354278874925194,4112.820512820513,1953.8461538461538,2.0,3.989010989010989,250.68870523415978,0.2595419847328244,-11.17557251908397,13.17557251908397,-0.9370314842578711,0.06146926536731634,-0.43928035982008995,1427.106227106227,97.07419531954584,30.8981430582935,
1770982167356.8638,6.021739130434782,-5.6521739130434785,1.5434782608695652,4.208258527827648,-9.010173548773189,-0.8833034111310593,4112.820512820513,1961.9047619047617,2.0,3.986080586080586,250.87300128652822,0.732824427480916,-9.679389312977099,11.31297709923664,-0.9400299850074962,0.05247376311844078,-0.43928035982008995,1380.2197802197802,97.07134967533834,30.8981430582935,
1770982167376.395,6.065217391304348,-5.641304347826087,1.5,4.236983842010772,-9.019748653500898,-0.9000598444045481,4105.494505494506,1956.7765567765566,2.0,3.986080586080586,250.87300128652822,0.9007633587786259,-8.82442748091603,9.465648854961831,-0.9355322338830584,0.07346326836581708,-0.44377811094452774,1336.263736263736,97.07704096654732,30.8981430582935,
1770982167395.926,6.043478260869565,-5.58695652173913,1.5326086956521738,4.2513464991023335,-8.995810891681627,-0.8809096349491322,4084.981684981685,1917.9487179487178,2.0,3.984615384615385,250.96525096525096,1.282442748091603,-7.251908396946565,7.603053435114504,-0.9355322338830584,0.05397301349325337,-0.4332833583208396,1301.098901098901,97.07134967533834,30.8981430582935,
1770982167415.4573,6.0,-5.554347826086956,1.5108695652173914,4.208258527827648,-8.933572710951525,-0.8569718731298623,4112.820512820513,1951.6483516483515,2.0,3.9831501831501828,251.05756851204708,1.4198473282442747,-6.458015267175572,5.526717557251908,-0.9355322338830584,0.06296851574212893,-0.43628185907046474,1271.7948717948716,97.06565839530525,30.8981430582935,
1770982167434.9883,5.945652173913043,-5.576086956521739,1.467391304347826,4.134051466187912,-8.923997606223818,-0.9239976062238181,4111.355311355311,1955.311355311355,2.0,3.9802197802197803,251.24240750966317,1.099236641221374,-6.564885496183206,3.1908396946564883,-0.9355322338830584,0.06296851574212893,-0.43628185907046474,1246.8864468864467,97.07134967533834,30.8981430582935,
1770982167454.5193,5.934782608695652,-5.576086956521739,1.4021739130434783,4.117295032914423,-8.964691801316576,-0.9599042489527229,4111.355311355311,1956.7765567765566,2.0,3.9787545787545793,251.33492911066102,1.465648854961832,-6.763358778625954,-0.4580152671755725,-0.9295352323838081,0.06296851574212893,-0.4407796101949025,1230.03663003663,97.07419531954584,30.8981430582935,
1770982167474.0503,5.945652173913043,-5.554347826086956,1.434782608695652,4.122082585278276,-8.9311789347696,-0.9910233393177738,4087.912087912088,1924.5421245421244,2.0,3.975824175824176,251.5201768933112,0.9923664122137404,-6.870229007633587,-0.564885496183206,-0.9340329835082458,0.05547226386806597,-0.4512743628185907,1213.1868131868132,97.07704096654732,30.8981430582935,
1770982167493.5815,5.956521739130435,-5.5978260869565215,1.5,4.138839018551765,-8.979054458408138,-0.931178934769599,4086.4468864468863,1915.018315018315,2.0,3.9743589743589745,251.61290322580643,0.42748091603053434,-5.648854961832061,-2.2442748091603053,-0.9280359820089955,0.05397301349325337,-0.43778110944527737,1202.9304029304028,97.07419531954584,30.8981430582935,
1770982167513.1128,5.891304347826087,-5.58695652173913,1.5,4.062238180730102,-8.943147815679234,-0.8904847396768402,4111.355311355311,1945.054945054945,2.0,3.972893772893773,251.70569795316246,0.5190839694656488,-4.152671755725191,-3.282442748091603,-0.9355322338830584,0.07646176911544228,-0.4407796101949025,1209.5238095238094,97.07704096654732,30.8981430582935,
1770982167532.6438,5.826086956521739,-5.608695652173913,1.4782608695652173,4.0119688809096345,-8.945541591861161,-0.9096349491322561,4105.494505494506,1945.054945054945,2.0,3.9699633699633696,251.89149289536815,-0.16793893129770993,-2.763358778625954,-4.366412213740458,-0.9325337331334332,0.06446776611694152,-0.44377811094452774,1223.4432234432234,97.07704096654732,30.8981430582935,
1770982167552.1748,5.75,-5.673913043478261,1.434782608695652,3.9114302812687014,-9.029323758228605,-0.9838420107719928,4112.820512820513,1959.7069597069597,2.0,3.9684981684981686,251.9844932619531,-0.8244274809160305,-2.595419847328244,-5.557251908396946,-0.9340329835082458,0.05697151424287856,-0.44377811094452774,1230.03663003663,97.07134967533834,30.8981430582935,
1770982167571.706,5.695652173913043,-5.706521739130435,1.4456521739130435,3.8324356672651105,-9.086774386594854,-0.9575104727707959,4112.820512820513,1963.3699633699632,2.0,3.965567765567766,252.17070016626639,-0.1984732824427481,-2.8091603053435112,-6.549618320610687,-0.9355322338830584,0.06296851574212893,-0.43928035982008995,1251.2820512820513,97.07988661634276,30.8981430582935,
1770982167591.237,5.630434782608695,-5.673913043478261,1.4782608695652173,3.7941352483542787,-9.058049072411729,-0.9168162776780371,4098.1684981684975,1942.124542124542,2.0,3.964102564102564,252.26390685640362,0.2595419847328244,-2.763358778625954,-7.3893129770992365,-0.9340329835082458,0.04947526236881559,-0.4332833583208396,1313.5531135531135,97.07134967533834,30.8981430582935,
1770982167610.7683,5.58695652173913,-5.619565217391304,1.4891304347826086,3.734290843806104,-8.981448234590065,-0.9120287253141831,4112.820512820513,1958.974358974359,2.0,3.9611721611721613,252.45052709450712,0.549618320610687,-2.5801526717557253,-7.526717557251908,-0.9295352323838081,0.05547226386806597,-0.4497751124437781,1455.6776556776556,97.07704096654732,30.8981430582935,
1770982167630.2993,5.554347826086956,-5.5978260869565215,1.4782608695652173,3.688809096349491,-8.952722920406941,-0.926391382405745,4087.912087912088,1926.007326007326,2.0,3.95970695970696,252.54394079555965,0.0,-2.3664122137404577,-7.8473282442748085,-0.9370314842578711,0.043478260869565216,-0.4467766116941529,1665.9340659340658,97.07988661634276,30.8981430582935,
1770982167649.8303,5.532608695652174,-5.630434782608695,1.5,3.6864153201675642,-8.952722920406941,-0.9072411729503291,4112.820512820513,1954.5787545787543,2.0,3.9567765567765574,252.73097574523234,-0.8396946564885496,-2.6259541984732824,-8.106870229007633,-0.9385307346326837,0.05997001499250375,-0.4452773613193403,1871.7948717948716,97.07988661634276,30.8981430582935,
1770982167669.3616,5.478260869565217,-5.673913043478261,1.4782608695652173,3.6169958108916815,-9.019748653500898,-0.926391382405745,4111.355311355311,1956.7765567765566,2.0,3.9553113553113555,252.82459714761993,-0.9770992366412213,-1.6335877862595418,-8.290076335877862,-0.9310344827586207,0.06296851574212893,-0.4482758620689655,2019.7802197802196,97.07988661634276,30.8981430582935,
1770982167688.8926,5.413043478260869,-5.673913043478261,1.4456521739130435,3.576301615798923,-9.053261520047876,-0.9646918013165768,4104.029304029304,1947.9853479853477,2.0,3.952380952380953,253.01204819277106,-1.0381679389312977,-1.083969465648855,-8.229007633587786,-0.9265367316341829,0.07496251874062969,-0.4467766116941529,2083.5164835164833,97.07988661634276,30.8981430582935,
1770982167708.4236,5.380434782608695,-5.6521739130434785,1.4891304347826086,3.516457211250748,-9.043686415320167,-0.9239976062238181,4112.820512820513,1960.4395604395604,2.0,3.9509157509157506,253.10587798998702,-1.4961832061068703,-0.3053435114503817,-7.297709923664121,-0.9370314842578711,0.05697151424287856,-0.4512743628185907,2052.747252747253,97.07704096654732,30.8981430582935,
1770982167727.9548,5.3478260869565215,-5.5978260869565215,1.5217391304347825,3.466187911430281,-8.983842010771992,-0.8641532016756434,4112.820512820513,1964.102564102564,2.0,3.947985347985348,253.2937465206903,-1.9389312977099236,0.061068702290076333,-6.5038167938931295,-0.9340329835082458,0.05547226386806597,-0.4407796101949025,1929.6703296703295,97.07704096654732,30.8981430582935,
1770982167747.4858,5.315217391304348,-5.576086956521739,1.5869565217391304,3.4446439257929384,-8.945541591861161,-0.8426092160383004,4106.959706959707,1956.7765567765566,2.0,3.946520146520147,253.38778540931872,-2.6564885496183206,0.8091603053435115,-5.6183206106870225,-0.9295352323838081,0.046476761619190406,-0.43478260869565216,1751.6483516483515,97.07419531954584,30.8981430582935,
1770982167767.017,5.304347826086956,-5.608695652173913,1.5652173913043477,3.3991621783363253,-8.947935368043089,-0.8378216636744464,4111.355311355311,1956.7765567765566,2.0,3.9435897435897433,253.57607282184654,-3.312977099236641,0.33587786259541985,-4.290076335877862,-0.9400299850074962,0.06446776611694152,-0.4422788605697151,1555.311355311355,97.07704096654732,30.8981430582935,
1770982167786.548,5.304347826086956,-5.641304347826087,1.5652173913043477,3.3895870736086176,-9.000598444045481,-0.8234590065828845,4087.912087912088,1924.5421245421244,2.0,3.9421245421245423,253.67032150157962,-3.7404580152671754,0.42748091603053434,-3.0076335877862594,-0.9430284857571214,0.06296851574212893,-0.4512743628185907,1367.032967032967,97.07704096654732,30.8981430582935,
1770982167806.079,5.271739130434782,-5.641304347826087,1.5978260869565217,3.3943746259724716,-9.005385996409336,-0.7827648114901257,4111.355311355311,1947.2527472527472,2.0,3.940659340659341,253.76464026770773,-3.4198473282442747,0.8091603053435115,-1.3893129770992365,-0.9385307346326837,0.06146926536731634,-0.43628185907046474,1198.5347985347985,97.07419531954584,30.8981430582935,
1770982167825.6104,5.293478260869565,-5.5978260869565215,1.6304347826086956,3.4254937163375225,-8.96229802513465,-0.7564332734889287,4111.355311355311,1954.5787545787543,2.0,3.9377289377289375,253.953488372093,-3.145038167938931,0.6717557251908397,-0.15267175572519084,-0.9370314842578711,0.05997001499250375,-0.4422788605697151,1072.5274725274724,97.07704096654732,30.8981430582935,
1770982167845.1414,5.282608695652174,-5.543478260869565,1.641304347826087,3.3943746259724716,-8.900059844404549,-0.7253141831238779,4104.029304029304,1947.2527472527472,2.0,3.9362637362637365,254.04801786711332,-2.778625954198473,0.8549618320610687,0.916030534351145,-0.9370314842578711,0.050974512743628186,-0.4482758620689655,1010.2564102564102,97.07704096654732,30.8981430582935,
1770982167864.6726,5.304347826086956,-5.532608695652174,1.6630434782608696,3.4015559545182525,-8.88330341113106,-0.7324955116696589,4083.5164835164833,1920.14652014652,2.0,3.934798534798535,254.14261776205547,-2.9618320610687023,0.4580152671755725,2.0610687022900764,-0.9400299850074962,0.06746626686656672,-0.46026986506746626,1021.2454212454212,97.07704096654732,30.8981430582935,
1770982167884.2036,5.358695652173913,-5.58695652173913,1.6739130434782608,3.4518252543387193,-8.928785158587672,-0.7324955116696589,4111.355311355311,1946.5201465201465,2.0,3.9318681318681317,254.3320290665176,-3.3587786259541983,-0.183206106870229,2.687022900763359,-0.9325337331334332,0.0704647676161919,-0.4467766116941529,1077.6556776556777,97.07704096654732,30.8981430582935,
1770982167903.7346,5.413043478260869,-5.619565217391304,1.641304347826087,3.490125673249551,-8.96229802513465,-0.7157390783961699,4109.89010989011,1953.113553113553,2.0,3.93040293040293,254.42684063373716,-4.061068702290076,-0.42748091603053434,3.2213740458015265,-0.9400299850074962,0.06746626686656672,-0.45277361319340326,1167.032967032967,97.07704096654732,30.8981430582935,
1770982167923.266,5.456521739130435,-5.5978260869565215,1.6521739130434783,3.583482944344704,-8.974266906044285,-0.7492519449431478,4111.355311355311,1956.0439560439559,2.0,3.928937728937729,254.52172291627818,-3.282442748091603,-0.5038167938931297,3.450381679389313,-0.9355322338830584,0.06446776611694152,-0.4422788605697151,1259.3406593406592,97.07134967533834,30.8981430582935,
1770982167942.7969,5.478260869565217,-5.619565217391304,1.6521739130434783,3.6146020347097547,-8.991023339317774,-0.7324955116696589,4087.912087912088,1924.5421245421244,2.0,3.9260073260073267,254.7116999440194,-3.5725190839694654,0.5190839694656488,3.7557251908396947,-0.9400299850074962,0.05847076461769115,-0.43628185907046474,1344.3223443223442,97.07419531954584,30.8981430582935,
1770982167962.328,5.5,-5.619565217391304,1.6630434782608696,3.6074207061639734,-8.964691801316576,-0.7205266307600239,4111.355311355311,1947.9853479853477,2.0,3.9245421245421244,254.8067948478626,-3.5114503816793894,0.47328244274809156,3.633587786259542,-0.9340329835082458,0.05397301349325337,-0.4497751124437781,1410.2564102564102,97.07134967533834,30.8981430582935,
1770982167981.8591,5.521739130434782,-5.619565217391304,1.6739130434782608,3.6433273488928783,-8.96947935368043,-0.7205266307600239,4111.355311355311,1954.5787545787543,2.0,3.921611721611722,254.99719783299082,-3.9236641221374042,0.33587786259541985,3.8931297709923665,-0.9355322338830584,0.05847076461769115,-0.4407796101949025,1442.4908424908424,97.07704096654732,30.8981430582935,
1770982168001.39,5.521739130434782,-5.619565217391304,1.6521739130434783,3.6505086774386593,-8.967085577498503,-0.7372830640335128,4104.029304029304,1947.2527472527472,2.0,3.920146520146521,255.09250607363109,-3.7251908396946565,0.04580152671755725,3.465648854961832,-0.944527736131934,0.06746626686656672,-0.4467766116941529,1445.4212454212454,97.07134967533834,30.8981430582935,
1770982168020.9214,5.576086956521739,-5.5978260869565215,1.6304347826086956,3.6983842010771992,-8.940754039497307,-0.7636146020347098,4111.355311355311,1954.5787545787543,2.0,3.9186813186813194,255.18788558609083,-3.7862595419847325,-0.7480916030534351,2.916030534351145,-0.9400299850074962,0.07196401799100449,-0.4467766116941529,1420.5128205128203,97.07055440439333,30.89311807519407,
1770982168040.4524,5.619565217391304,-5.565217391304348,1.6195652173913042,3.748653500897666,-8.902453620586474,-0.7731897067624177,4111.355311355311,1956.0439560439559,2.0,3.9172161172161175,255.28333645034596,-3.297709923664122,-0.5038167938931297,2.6717557251908395,-0.9355322338830584,0.06746626686656672,-0.4482758620689655,1379.4871794871794,97.07055440439333,30.89311807519407,
1770982168059.9836,5.641304347826087,-5.565217391304348,1.6195652173913042,3.760622381807301,-8.907241172950329,-0.7803710353081986,4102.5641025641025,1942.124542124542,2.0,3.915750915750916,255.37885874649203,-3.8625954198473282,-0.07633587786259542,2.16793893129771,-0.9400299850074962,0.05997001499250375,-0.4467766116941529,1336.9963369963368,97.07624564933526,30.89311807519407,
1770982168079.5146,5.630434782608695,-5.619565217391304,1.6521739130434783,3.763016157989228,-8.955116696588869,-0.7540394973070018,4109.89010989011,1952.3809523809523,2.0,3.9142857142857146,255.47445255474452,-4.381679389312977,0.8396946564885496,2.1221374045801524,-0.9385307346326837,0.07796101949025487,-0.45577211394302847,1298.9010989010987,97.07340002546735,30.89311807519407,
1770982168099.0457,5.630434782608695,-5.6521739130434785,1.5652173913043477,3.763016157989228,-9.01735487731897,-0.7947336923997605,4087.912087912088,1923.8095238095236,2.0,3.9113553113553112,255.66585502903163,-4.687022900763359,1.2366412213740459,1.4198473282442747,-0.9265367316341829,0.05247376311844078,-0.4407796101949025,1265.2014652014652,97.07624564933526,30.89311807519407,
1770982168118.577,5.58695652173913,-5.641304347826087,1.5326086956521738,3.731897067624177,-9.012567324955116,-0.8641532016756434,4111.355311355311,1947.2527472527472,2.0,3.90989010989011,255.76166385609892,-4.885496183206107,1.099236641221374,0.8854961832061068,-0.9385307346326837,0.0704647676161919,-0.4482758620689655,1241.0256410256409,97.07624564933526,30.89311807519407,
1770982168138.108,5.630434782608695,-5.641304347826087,1.5543478260869565,3.763016157989228,-9.007779772591263,-0.8354278874925194,4112.820512820513,1960.4395604395604,2.0,3.9084249084249088,255.8575445173383,-4.961832061068702,1.1450381679389312,-0.21374045801526717,-0.9325337331334332,0.05997001499250375,-0.4452773613193403,1227.106227106227,97.07909127599713,30.89311807519407,
1770982168157.639,5.5978260869565215,-5.619565217391304,1.6195652173913042,3.763016157989228,-8.976660682226212,-0.7851585876720526,4105.494505494506,1950.18315018315,2.0,3.9069597069597077,255.95349709356833,-4.900763358778626,1.3282442748091603,-1.0076335877862594,-0.9310344827586207,0.07196401799100449,-0.4422788605697151,1218.3150183150183,97.07909127599713,30.89311807519407,
1770982168177.1702,5.58695652173913,-5.641304347826087,1.5978260869565217,3.739078396169958,-8.993417115499701,-0.7636146020347098,4111.355311355311,1955.311355311355,2.0,3.905494505494506,256.0495216657287,-5.984732824427481,1.7251908396946565,-1.7099236641221374,-0.9325337331334332,0.08545727136431784,-0.4467766116941529,1210.989010989011,97.08193690545293,30.89311807519407,
1770982168196.7012,5.565217391304348,-5.706521739130435,1.608695652173913,3.6983842010771992,-9.050867743865949,-0.7923399162178336,4112.820512820513,1962.6373626373625,2.0,3.9040293040293044,256.14561831488083,-6.045801526717557,1.9389312977099236,-2.4732824427480917,-0.9355322338830584,0.05247376311844078,-0.4422788605697151,1217.5824175824175,97.07055440439333,30.89311807519407,
1770982168216.2324,5.510869565217392,-5.728260869565217,1.608695652173913,3.6648713345302215,-9.101137043686416,-0.7827648114901257,4111.355311355311,1958.2417582417581,2.0,3.902564102564103,256.2417871222076,-5.923664122137405,2.2900763358778624,-3.3435114503816794,-0.9325337331334332,0.06896551724137931,-0.4452773613193403,1238.8278388278388,97.07624564933526,30.89311807519407,
1770982168235.7634,5.467391304347826,-5.706521739130435,1.6630434782608696,3.6146020347097547,-9.06523040095751,-0.7444643925792939,4112.820512820513,1963.3699633699632,2.0,3.901098901098901,256.3380281690141,-5.3893129770992365,2.2442748091603053,-4.106870229007633,-0.9265367316341829,0.06896551724137931,-0.4407796101949025,1295.2380952380952,97.07624564933526,30.89311807519407,
1770982168255.2944,5.434782608695652,-5.706521739130435,1.6739130434782608,3.571514063435069,-9.048473967684021,-0.706163973668462,4087.912087912088,1926.7399267399267,2.0,3.8996336996337,256.4343415367274,-4.916030534351145,1.9236641221374045,-3.8625954198473282,-0.9355322338830584,0.06446776611694152,-0.4467766116941529,1431.5018315018315,97.07909127599713,30.89311807519407,
1770982168274.8257,5.4021739130434785,-5.684782608695652,1.684782608695652,3.521244763614602,-9.070017953321365,-0.687013764213046,4114.285714285714,1949.4505494505493,2.0,3.8996336996337,256.4343415367274,-5.251908396946565,1.4045801526717556,-4.458015267175572,-0.9295352323838081,0.06746626686656672,-0.43478260869565216,1652.0146520146518,97.07624564933526,30.89311807519407,
1770982168294.3567,5.4021739130434785,-5.706521739130435,1.6521739130434783,3.535607420706164,-9.062836624775583,-0.701376421304608,4112.820512820513,1961.172161172161,2.0,3.8981684981684985,256.5307273068972,-5.145038167938931,1.6946564885496183,-4.396946564885496,-0.9385307346326837,0.07946026986506746,-0.4452773613193403,1911.3553113553112,97.07340002546735,30.89311807519407,
1770982168313.888,5.391304347826087,-5.739130434782608,1.641304347826087,3.502094554159186,-9.093955715140634,-0.7253141831238779,4104.029304029304,1950.18315018315,2.0,3.896703296703297,256.6271855611957,-5.450381679389313,1.7862595419847327,-4.33587786259542,-0.9385307346326837,0.05997001499250375,-0.4497751124437781,2160.4395604395604,97.07624564933526,30.89311807519407,
1770982168333.419,5.326086956521739,-5.75,1.641304347826087,3.4326750448833034,-9.125074805505685,-0.708557749850389,4112.820512820513,1961.172161172161,2.0,3.8952380952380956,256.72371638141806,-5.129770992366412,2.8396946564885495,-4.778625954198473,-0.9370314842578711,0.06146926536731634,-0.4452773613193403,2330.4029304029305,97.07340002546735,30.89311807519407,
1770982168352.95,5.326086956521739,-5.728260869565217,1.6630434782608696,3.4207061639736684,-9.11310592459605,-0.708557749850389,4111.355311355311,1958.2417582417581,2.0,3.893772893772894,256.8203198494826,-4.961832061068702,3.282442748091603,-4.2748091603053435,-0.9340329835082458,0.0704647676161919,-0.43928035982008995,2360.4395604395604,97.07340002546735,30.89311807519407,
1770982168372.4812,5.239130434782608,-5.739130434782608,1.717391304347826,3.3608617594254935,-9.098743267504489,-0.6702573309395571,4111.355311355311,1950.18315018315,2.0,3.893772893772894,256.8203198494826,-5.129770992366412,4.65648854961832,-3.9236641221374042,-0.9370314842578711,0.07496251874062969,-0.45577211394302847,2255.6776556776554,97.07340002546735,30.89311807519407,
1770982168392.0122,5.206521739130435,-5.760869565217392,1.7065217391304348,3.291442250149611,-9.125074805505685,-0.6726511071214841,4112.820512820513,1961.172161172161,2.0,3.8923076923076927,256.9169960474308,-5.206106870229007,4.488549618320611,-3.236641221374046,-0.9265367316341829,0.05997001499250375,-0.4482758620689655,2057.875457875458,97.07055440439333,30.89311807519407,
1770982168411.5437,5.173913043478261,-5.739130434782608,1.6630434782608696,3.274685816876122,-9.125074805505685,-0.701376421304608,4087.912087912088,1925.2747252747251,2.0,3.8908424908424912,257.01374505742797,-4.67175572519084,3.877862595419847,-2.5038167938931295,-0.9310344827586207,0.04947526236881559,-0.45277361319340326,1824.1758241758241,97.06770878611327,30.89311807519407,
1770982168431.0745,5.184782608695652,-5.782608695652174,1.684782608695652,3.301017354877319,-9.16816277678037,-0.7157390783961699,4112.820512820513,1953.8461538461538,2.0,3.8893772893772898,257.110566961763,-4.442748091603053,3.297709923664122,-1.984732824427481,-0.9400299850074962,0.05697151424287856,-0.4467766116941529,1603.6630036630036,97.07055440439333,30.89311807519407,
1770982168450.6057,5.228260869565217,-5.771739130434782,1.6956521739130435,3.3153800119688808,-9.163375224416518,-0.6918013165769,4112.820512820513,1961.9047619047617,2.0,3.887912087912088,257.20746184284906,-3.6488549618320607,2.351145038167939,-1.3893129770992365,-0.9385307346326837,0.05697151424287856,-0.4452773613193403,1413.9194139194137,97.07055440439333,30.89311807519407,
1770982168470.1367,5.217391304347826,-5.793478260869565,1.7065217391304348,3.3273488928785158,-9.16816277678037,-0.6822262118491921,4104.029304029304,1949.4505494505493,2.0,3.8864468864468873,257.3044297832233,-3.450381679389313,2.2748091603053435,-1.0229007633587786,-0.9400299850074962,0.06746626686656672,-0.44377811094452774,1255.6776556776556,97.07624564933526,30.89311807519407,
1770982168489.6675,5.184782608695652,-5.75,1.684782608695652,3.293836026331538,-9.151406343506881,-0.6630760023937762,4112.820512820513,1961.172161172161,2.0,3.8864468864468873,257.3044297832233,-2.748091603053435,2.030534351145038,-0.7786259541984732,-0.9475262368815592,0.05697151424287856,-0.4422788605697151,1134.065934065934,97.07055440439333,30.89311807519407,
1770982168509.199,5.1521739130434785,-5.717391304347826,1.6956521739130435,3.253141831238779,-9.132256134051467,-0.706163973668462,4112.820512820513,1964.102564102564,2.0,3.8864468864468873,257.3044297832233,-2.8702290076335877,0.916030534351145,-0.5038167938931297,-0.9370314842578711,0.06296851574212893,-0.4482758620689655,1067.3992673992673,97.07340002546735,30.89311807519407,
1770982168528.73,5.141304347826087,-5.782608695652174,1.6956521739130435,3.241172950329144,-9.12986235786954,-0.6918013165769,4105.494505494506,1951.6483516483515,2.0,3.8835164835164844,257.4985851726089,-3.16030534351145,-0.32061068702290074,-0.4427480916030534,-0.9340329835082458,0.06296851574212893,-0.4497751124437781,1060.07326007326,97.07055440439333,30.89311807519407,
1770982168548.261,5.184782608695652,-5.793478260869565,1.6630434782608696,3.26032315978456,-9.182525433871932,-0.6846199880311191,4105.494505494506,1947.2527472527472,2.0,3.8835164835164844,257.4985851726089,-2.9618320610687023,-1.618320610687023,-0.2595419847328244,-0.9295352323838081,0.05697151424287856,-0.4497751124437781,1115.7509157509157,97.07624564933526,30.89311807519407,
1770982168567.7922,5.173913043478261,-5.771739130434782,1.6630434782608696,3.272292040694195,-9.151406343506881,-0.7109515260323159,4086.4468864468863,1921.6117216117216,2.0,3.8835164835164844,257.4985851726089,-2.4885496183206106,-2.6259541984732824,-0.07633587786259542,-0.9385307346326837,0.07346326836581708,-0.4482758620689655,1203.6630036630036,97.07624564933526,30.89311807519407,
1770982168587.3232,5.184782608695652,-5.75,1.6630434782608696,3.277079593058049,-9.146618791143029,-0.6918013165769,4112.820512820513,1953.113553113553,2.0,3.8835164835164844,257.4985851726089,-2.4580152671755724,-3.312977099236641,0.48854961832061067,-0.9310344827586207,0.0704647676161919,-0.4482758620689655,1306.227106227106,97.07055440439333,30.89311807519407,
1770982168606.8542,5.184782608695652,-5.782608695652174,1.7065217391304348,3.281867145421903,-9.153800119688809,-0.6894075403949731,4111.355311355311,1956.0439560439559,2.0,3.882051282051283,257.5957727873183,-2.0,-3.7709923664122136,0.7633587786259541,-0.9370314842578711,0.0704647676161919,-0.4467766116941529,1395.6043956043954,97.07624564933526,30.89311807519407,
1770982168626.3855,5.184782608695652,-5.771739130434782,1.6739130434782608,3.291442250149611,-9.146618791143029,-0.701376421304608,4102.5641025641025,1942.124542124542,2.0,3.882051282051283,257.5957727873183,-1.4351145038167938,-4.305343511450381,1.114503816793893,-0.9355322338830584,0.06596701649175413,-0.4452773613193403,1451.2820512820513,97.07624564933526,30.89311807519407,
1770982168645.9165,5.195652173913043,-5.728260869565217,1.684782608695652,3.3153800119688808,-9.108318372232196,-0.6846199880311191,4111.355311355311,1953.113553113553,2.0,3.8805860805860815,257.6930337927128,-1.099236641221374,-4.717557251908397,1.5114503816793892,-0.9325337331334332,0.08545727136431784,-0.4497751124437781,1477.6556776556777,97.07624564933526,30.89311807519407,
1770982168665.4478,5.25,-5.739130434782608,1.684782608695652,3.3464991023339317,-9.12028725314183,-0.698982645122681,4112.820512820513,1961.9047619047617,2.0,3.8805860805860815,257.6930337927128,-1.129770992366412,-4.458015267175572,2.2900763358778624,-0.9295352323838081,0.05997001499250375,-0.4497751124437781,1481.3186813186812,97.07624564933526,30.89311807519407,
1770982168684.9788,5.282608695652174,-5.75,1.684782608695652,3.3680430879712744,-9.115499700777978,-0.6630760023937762,4109.89010989011,1957.5091575091574,2.0,3.879120879120879,257.79036827195466,-0.8244274809160305,-3.83206106870229,2.916030534351145,-0.9325337331334332,0.050974512743628186,-0.43628185907046474,1463.003663003663,97.07340002546735,30.89311807519407,
1770982168704.5098,5.304347826086956,-5.75,1.684782608695652,3.3728306403351285,-9.144225014961101,-0.703770197486535,4111.355311355311,1957.5091575091574,2.0,3.879120879120879,257.79036827195466,-1.1755725190839694,-3.480916030534351,3.145038167938931,-0.9280359820089955,0.0704647676161919,-0.4467766116941529,1424.9084249084249,97.07055440439333,30.89311807519407,
1770982168724.041,5.33695652173913,-5.739130434782608,1.684782608695652,3.4254937163375225,-9.117893476959903,-0.7348892878515858,4095.238095238095,1939.194139194139,2.0,3.877655677655678,257.88777630833175,-0.7633587786259541,-3.618320610687023,3.450381679389313,-0.9415292353823088,0.05847076461769115,-0.4512743628185907,1367.7655677655678,97.07055440439333,30.89311807519407,
1770982168743.572,5.326086956521739,-5.739130434782608,1.7608695652173914,3.430281268701376,-9.122681029323758,-0.6415320167564332,4112.820512820513,1958.2417582417581,2.0,3.876190476190477,257.98525798525793,-1.0687022900763359,-3.312977099236641,3.297709923664122,-0.9280359820089955,0.07946026986506746,-0.4497751124437781,1321.6117216117216,97.07055440439333,30.89311807519407,
1770982168763.1033,5.293478260869565,-5.728260869565217,1.75,3.4063435068821066,-9.084380610412927,-0.6032315978456014,4111.355311355311,1957.5091575091574,2.0,3.876190476190477,257.98525798525793,-1.0076335877862594,-3.465648854961832,2.564885496183206,-0.9295352323838081,0.06296851574212893,-0.4467766116941529,1290.10989010989,97.07340002546735,30.89311807519407,
1770982168782.6345,5.304347826086956,-5.739130434782608,1.6630434782608696,3.4207061639736684,-9.110712148414123,-0.6726511071214841,4102.5641025641025,1942.8571428571427,2.0,3.876190476190477,257.98525798525793,-1.129770992366412,-4.824427480916031,1.7557251908396947,-0.9325337331334332,0.05547226386806597,-0.4497751124437781,1259.3406593406592,97.07340002546735,30.89311807519407,
1770982168802.1653,5.3478260869565215,-5.739130434782608,1.717391304347826,3.4518252543387193,-9.141831238779174,-0.6798324356672651,4111.355311355311,1953.113553113553,2.0,3.876190476190477,257.98525798525793,-0.564885496183206,-5.770992366412213,1.1603053435114503,-0.9340329835082458,0.05397301349325337,-0.45277361319340326,1240.2930402930401,97.07055440439333,30.89311807519407,
1770982168821.6963,5.358695652173913,-5.717391304347826,1.7826086956521738,3.454219030520646,-9.086774386594854,-0.5529622980251346,4112.820512820513,1961.9047619047617,2.0,3.8747252747252747,258.0828133862734,-0.3969465648854962,-6.0,0.5801526717557252,-0.9340329835082458,0.06746626686656672,-0.4587706146926537,1226.3736263736264,97.07340002546735,30.89311807519407,
1770982168841.2275,5.33695652173913,-5.695652173913043,1.7826086956521738,3.449431478156792,-9.046080191502094,-0.5960502692998204,4111.355311355311,1958.2417582417581,2.0,3.8747252747252747,258.0828133862734,0.061068702290076333,-5.740458015267175,0.183206106870229,-0.9310344827586207,0.06896551724137931,-0.45277361319340326,1219.7802197802198,97.07624564933526,30.89311807519407,
1770982168860.7588,5.304347826086956,-5.717391304347826,1.7282608695652173,3.418312387791741,-9.084380610412927,-0.6415320167564332,4112.820512820513,1963.3699633699632,2.0,3.8747252747252747,258.0828133862734,-0.3969465648854962,-5.465648854961832,0.183206106870229,-0.9295352323838081,0.08245877061469264,-0.4482758620689655,1210.989010989011,97.07624564933526,30.89311807519407,
1770982168880.2898,5.293478260869565,-5.771739130434782,1.7608695652173914,3.4063435068821066,-9.146618791143029,-0.6152004787552364,4087.912087912088,1926.7399267399267,2.0,3.8747252747252747,258.0828133862734,-0.6564885496183206,-4.65648854961832,0.061068702290076333,-0.9295352323838081,0.06446776611694152,-0.4332833583208396,1213.1868131868132,97.07340002546735,30.89311807519407,
1770982168899.8208,5.25,-5.717391304347826,1.7934782608695652,3.3776181926989826,-9.117893476959903,-0.5745062836624776,4112.820512820513,1954.5787545787543,2.0,3.8747252747252747,258.0828133862734,-0.030534351145038167,-4.870229007633587,-0.1984732824427481,-0.9295352323838081,0.05997001499250375,-0.4452773613193403,1257.142857142857,97.07624564933526,30.89311807519407,
1770982168919.352,5.239130434782608,-5.673913043478261,1.8043478260869565,3.35607420706164,-9.055655296229803,-0.5673249551166966,4112.820512820513,1962.6373626373625,2.0,3.8747252747252747,258.0828133862734,0.061068702290076333,-5.297709923664122,-0.48854961832061067,-0.9310344827586207,0.06596701649175413,-0.43928035982008995,1400.0,97.07909127599713,30.89311807519407,
1770982168938.883,5.25,-5.684782608695652,1.7826086956521738,3.3417115499700776,-9.036505086774387,-0.5936564931178935,4104.029304029304,1950.18315018315,2.0,3.876190476190477,257.98525798525793,0.030534351145038167,-5.312977099236641,-0.8091603053435115,-0.9280359820089955,0.07196401799100449,-0.4452773613193403,1647.6190476190475,97.07624564933526,30.89311807519407,
1770982168958.4143,5.260869565217392,-5.717391304347826,1.75,3.3656493117893476,-9.077199281867145,-0.6008378216636744,4112.820512820513,1961.172161172161,2.0,3.876190476190477,257.98525798525793,0.21374045801526717,-5.435114503816794,-0.9618320610687022,-0.9220389805097451,0.0704647676161919,-0.45727136431784104,1954.5787545787543,97.07340002546735,30.89311807519407,
1770982168977.9453,5.228260869565217,-5.760869565217392,1.8043478260869565,3.3656493117893476,-9.146618791143029,-0.5888689407540395,4112.820512820513,1964.8351648351647,2.0,3.876190476190477,257.98525798525793,0.183206106870229,-5.419847328244274,-0.8854961832061068,-0.9340329835082458,0.0704647676161919,-0.45577211394302847,2241.0256410256407,97.07340002546735,30.89311807519407,
1770982168997.4763,5.217391304347826,-5.771739130434782,1.7826086956521738,3.33213644524237,-9.134649910233392,-0.5721125074805505,4111.355311355311,1959.7069597069597,2.0,3.876190476190477,257.98525798525793,-0.030534351145038167,-5.9541984732824424,-0.732824427480916,-0.9295352323838081,0.06446776611694152,-0.44377811094452774,2445.421245421245,97.06770878611327,30.89311807519407,
1770982169017.0076,5.25,-5.75,1.7717391304347825,3.3345302214242967,-9.13704368641532,-0.5912627169359664,4112.820512820513,1964.102564102564,2.0,3.876190476190477,257.98525798525793,0.0,-5.893129770992366,-1.6946564885496183,-0.9235382308845577,0.06746626686656672,-0.4422788605697151,2509.8901098901097,97.06850403392481,30.8981430582935,
1770982169036.5386,5.195652173913043,-5.728260869565217,1.7608695652173914,3.3225613405146617,-9.125074805505685,-0.6199880311190904,4099.6336996336995,1942.8571428571427,2.0,3.876190476190477,257.98525798525793,-0.21374045801526717,-6.305343511450381,-1.648854961832061,-0.9325337331334332,0.06746626686656672,-0.4482758620689655,2420.5128205128203,97.07419531954584,30.8981430582935,
1770982169056.0696,5.217391304347826,-5.717391304347826,1.7608695652173914,3.320167564332735,-9.091561938958707,-0.5840813883901855,4112.820512820513,1958.974358974359,2.0,3.876190476190477,257.98525798525793,-0.8091603053435115,-7.145038167938931,-2.0763358778625953,-0.9220389805097451,0.07646176911544228,-0.45277361319340326,2231.5018315018315,97.07419531954584,30.8981430582935,
1770982169075.6008,5.239130434782608,-5.684782608695652,1.7934782608695652,3.3273488928785158,-9.077199281867145,-0.5625374027528426,4112.820512820513,1963.3699633699632,2.0,3.876190476190477,257.98525798525793,-0.4427480916030534,-7.358778625954198,-1.7557251908396947,-0.9280359820089955,0.07646176911544228,-0.45577211394302847,1979.4871794871794,97.07419531954584,30.8981430582935,
1770982169095.1318,5.260869565217392,-5.695652173913043,1.7717391304347825,3.3512866546977857,-9.043686415320167,-0.6152004787552364,4104.029304029304,1950.18315018315,2.0,3.877655677655678,257.88777630833175,-0.7022900763358778,-7.0534351145038165,-1.6793893129770991,-0.9295352323838081,0.07496251874062969,-0.43928035982008995,1720.14652014652,97.07704096654732,30.8981430582935,
1770982169114.663,5.271739130434782,-5.728260869565217,1.75,3.3776181926989826,-9.098743267504489,-0.6175942549371634,4112.820512820513,1961.172161172161,2.0,3.877655677655678,257.88777630833175,-0.5954198473282443,-6.030534351145038,-1.7709923664122136,-0.9280359820089955,0.08545727136431784,-0.4542728635682159,1484.2490842490843,97.07134967533834,30.8981430582935,
1770982169134.194,5.239130434782608,-5.739130434782608,1.7826086956521738,3.3536804308797126,-9.110712148414123,-0.6271693596648713,4112.820512820513,1963.3699633699632,2.0,3.879120879120879,257.79036827195466,-0.33587786259541985,-5.206106870229007,-1.4351145038167938,-0.9265367316341829,0.06446776611694152,-0.4482758620689655,1287.179487179487,97.07134967533834,30.8981430582935,
1770982169153.725,5.206521739130435,-5.684782608695652,1.7608695652173914,3.3034111310592458,-9.062836624775583,-0.5864751645721125,4111.355311355311,1958.974358974359,2.0,3.879120879120879,257.79036827195466,-0.5954198473282443,-4.824427480916031,-1.5877862595419847,-0.9220389805097451,0.06746626686656672,-0.4512743628185907,1137.7289377289376,97.07419531954584,30.8981430582935,
1770982169173.2563,5.206521739130435,-5.684782608695652,1.7608695652173914,3.3105924596050267,-9.046080191502094,-0.6175942549371634,4105.494505494506,1949.4505494505493,2.0,3.8805860805860815,257.6930337927128,-1.2519083969465647,-5.32824427480916,-1.66412213740458,-0.9190404797601199,0.07346326836581708,-0.4452773613193403,1058.6080586080586,97.07419531954584,30.8981430582935,
1770982169192.7874,5.217391304347826,-5.760869565217392,1.7282608695652173,3.3345302214242967,-9.125074805505685,-0.6152004787552364,4087.912087912088,1922.344322344322,2.0,3.8805860805860815,257.6930337927128,-1.297709923664122,-5.603053435114504,-1.618320610687023,-0.9235382308845577,0.07646176911544228,-0.4497751124437781,1054.212454212454,97.07419531954584,30.8981430582935,
1770982169212.3186,5.239130434782608,-5.782608695652174,1.7282608695652173,3.336923997606224,-9.158587672052663,-0.6750448833034112,4112.820512820513,1953.113553113553,2.0,3.8805860805860815,257.6930337927128,-1.3129770992366412,-5.847328244274809,-1.648854961832061,-0.9235382308845577,0.07946026986506746,-0.4497751124437781,1098.168498168498,97.07419531954584,30.8981430582935,
1770982169231.8496,5.239130434782608,-5.739130434782608,1.7065217391304348,3.3153800119688808,-9.13704368641532,-0.6535008976660682,4112.820512820513,1961.9047619047617,2.0,3.882051282051283,257.5957727873183,-0.5801526717557252,-5.312977099236641,-1.3740458015267174,-0.9235382308845577,0.08095952023988005,-0.4497751124437781,1175.0915750915751,97.07419531954584,30.8981430582935,
1770982169251.3806,5.195652173913043,-5.760869565217392,1.7391304347826086,3.3417115499700776,-9.11310592459605,-0.6367444643925793,4102.5641025641025,1944.3223443223442,2.0,3.8835164835164844,257.4985851726089,-1.5267175572519083,-4.885496183206107,-2.1526717557251906,-0.9250374812593702,0.06596701649175413,-0.4512743628185907,1276.1904761904761,97.07419531954584,30.8981430582935,
1770982169270.912,5.184782608695652,-5.771739130434782,1.7065217391304348,3.305804907241173,-9.146618791143029,-0.6798324356672651,4111.355311355311,1953.8461538461538,2.0,3.8835164835164844,257.4985851726089,-0.8854961832061068,-5.099236641221374,-2.1374045801526718,-0.9295352323838081,0.06296851574212893,-0.4452773613193403,1375.091575091575,97.07419531954584,30.8981430582935,
1770982169290.4429,5.108695652173913,-5.782608695652174,1.717391304347826,3.2172351885098744,-9.146618791143029,-0.6487133453022143,4112.820512820513,1961.9047619047617,2.0,3.8849816849816854,257.40147086554776,-0.7633587786259541,-5.755725190839694,-2.4122137404580153,-0.9280359820089955,0.0704647676161919,-0.4512743628185907,1438.8278388278388,97.07419531954584,30.8981430582935,
1770982169309.974,5.173913043478261,-5.793478260869565,1.75,3.2315978456014363,-9.16816277678037,-0.6582884500299222,4111.355311355311,1958.974358974359,2.0,3.8864468864468873,257.3044297832233,-0.8396946564885496,-6.778625954198473,-2.549618320610687,-0.9175412293853074,0.07346326836581708,-0.4422788605697151,1468.131868131868,97.07704096654732,30.8981430582935,
1770982169329.5051,5.228260869565217,-5.804347826086956,1.7065217391304348,3.3153800119688808,-9.156193895870736,-0.6511071214841412,4111.355311355311,1957.5091575091574,2.0,3.887912087912088,257.20746184284906,-1.129770992366412,-7.603053435114504,-2.8396946564885495,-0.9295352323838081,0.07646176911544228,-0.4512743628185907,1464.4688644688645,97.07419531954584,30.8981430582935,
1770982169349.036,5.195652173913043,-5.793478260869565,1.717391304347826,3.279473369239976,-9.158587672052663,-0.6511071214841412,4086.4468864468863,1923.8095238095236,2.0,3.8893772893772898,257.110566961763,-0.8854961832061068,-7.816793893129771,-2.351145038167939,-0.9280359820089955,0.06146926536731634,-0.45577211394302847,1432.2344322344322,97.07419531954584,30.8981430582935,
1770982169368.5674,5.173913043478261,-5.75,1.6956521739130435,3.286654697785757,-9.125074805505685,-0.6702573309395571,4111.355311355311,1954.5787545787543,2.0,3.8908424908424912,257.01374505742797,-1.0381679389312977,-7.343511450381679,-2.900763358778626,-0.9280359820089955,0.06146926536731634,-0.4452773613193403,1386.8131868131868,97.07704096654732,30.8981430582935,
1770982169388.0984,5.184782608695652,-5.728260869565217,1.7391304347826086,3.293836026331538,-9.086774386594854,-0.6415320167564332,4111.355311355311,1956.0439560439559,2.0,3.8923076923076927,256.9169960474308,-0.9465648854961831,-7.114503816793893,-3.2671755725190836,-0.9280359820089955,0.07196401799100449,-0.43628185907046474,1329.6703296703297,97.07134967533834,30.8981430582935,
1770982169407.6296,5.184782608695652,-5.673913043478261,1.7282608695652173,3.3034111310592458,-9.053261520047876,-0.6702573309395571,4101.098901098901,1947.2527472527472,2.0,3.893772893772894,256.8203198494826,-1.2213740458015268,-6.641221374045801,-2.8854961832061066,-0.9205397301349325,0.0704647676161919,-0.44377811094452774,1279.8534798534797,97.07419531954584,30.8981430582935,
1770982169427.1606,5.141304347826087,-5.663043478260869,1.75,3.245960502692998,-9.031717534410532,-0.6343506882106523,4111.355311355311,1954.5787545787543,2.0,3.8952380952380956,256.72371638141806,-1.0076335877862594,-6.519083969465648,-2.610687022900763,-0.9235382308845577,0.0704647676161919,-0.4587706146926537,1241.7582417582416,97.07134967533834,30.8981430582935,
1770982169446.6917,5.163043478260869,-5.706521739130435,1.7391304347826086,3.2483542788749253,-9.043686415320167,-0.6487133453022143,4111.355311355311,1956.0439560439559,2.0,3.8952380952380956,256.72371638141806,-1.450381679389313,-6.702290076335878,-2.748091603053435,-0.9205397301349325,0.06146926536731634,-0.4467766116941529,1213.9194139194137,97.07419531954584,30.8981430582935,
1770982169466.223,5.163043478260869,-5.804347826086956,1.6630434782608696,3.272292040694195,-9.153800119688809,-0.6535008976660682,4109.89010989011,1956.0439560439559,2.0,3.896703296703297,256.6271855611957,-1.2519083969465647,-6.8396946564885495,-2.2900763358778624,-0.9220389805097451,0.05847076461769115,-0.45577211394302847,1216.117216117216,97.07134967533834,30.8981430582935,
1770982169485.754,5.184782608695652,-5.83695652173913,1.6304347826086956,3.253141831238779,-9.218432076600838,-0.7660083782166367,4111.355311355311,1956.7765567765566,2.0,3.8981684981684985,256.5307273068972,-0.7786259541984732,-7.175572519083969,-1.9083969465648853,-0.9145427286356821,0.06146926536731634,-0.4452773613193403,1231.5018315018315,97.07704096654732,30.8981430582935,
1770982169505.285,5.1521739130434785,-5.858695652173913,1.717391304347826,3.250748055056852,-9.251944943147816,-0.718132854578097,4086.4468864468863,1923.8095238095236,2.0,3.8981684981684985,256.5307273068972,-0.22900763358778625,-6.809160305343511,-2.030534351145038,-0.9175412293853074,0.07196401799100449,-0.4467766116941529,1241.0256410256409,97.07134967533834,30.8981430582935,
1770982169524.8162,5.141304347826087,-5.8478260869565215,1.717391304347826,3.233991621783363,-9.2327947336924,-0.6535008976660682,4111.355311355311,1947.2527472527472,2.0,3.8996336996337,256.4343415367274,-0.41221374045801523,-7.190839694656488,-1.6793893129770991,-0.9130434782608695,0.06746626686656672,-0.4512743628185907,1232.967032967033,97.07134967533834,30.8981430582935,
1770982169544.3472,5.130434782608695,-5.880434782608695,1.6195652173913042,3.1956912028725313,-9.244763614602034,-0.7205266307600239,4111.355311355311,1954.5787545787543,2.0,3.8996336996337,256.4343415367274,-1.0381679389312977,-8.015267175572518,-1.984732824427481,-0.9205397301349325,0.0704647676161919,-0.44377811094452774,1227.8388278388277,97.07704096654732,30.8981430582935,
1770982169563.8784,5.1521739130434785,-5.956521739130435,1.5869565217391304,3.2052663076002395,-9.316576900059845,-0.7684021543985637,4101.098901098901,1946.5201465201465,2.0,3.8996336996337,256.4343415367274,-0.7938931297709924,-8.16793893129771,-1.7099236641221374,-0.9205397301349325,0.05697151424287856,-0.4467766116941529,1239.5604395604396,97.07419531954584,30.8981430582935,
1770982169583.4094,5.119565217391304,-5.913043478260869,1.6630434782608696,3.233991621783363,-9.31897067624177,-0.7229204069419509,4084.981684981685,1915.018315018315,2.0,3.8996336996337,256.4343415367274,0.015267175572519083,-8.580152671755725,-1.450381679389313,-0.9190404797601199,0.07346326836581708,-0.4452773613193403,1283.5164835164835,97.07419531954584,30.8981430582935,
1770982169602.9404,5.119565217391304,-5.880434782608695,1.6630434782608696,3.2244165170556554,-9.261520047875523,-0.7324955116696589,4111.355311355311,1945.054945054945,2.0,3.8996336996337,256.4343415367274,0.366412213740458,-8.549618320610687,-0.5343511450381679,-0.9145427286356821,0.06296851574212893,-0.43928035982008995,1430.7692307692307,97.07419531954584,30.8981430582935,
1770982169622.4717,5.119565217391304,-5.858695652173913,1.641304347826087,3.2076600837821663,-9.25673249551167,-0.7803710353081986,4111.355311355311,1953.8461538461538,2.0,3.8996336996337,256.4343415367274,0.42748091603053434,-8.961832061068701,-0.0916030534351145,-0.9235382308845577,0.07796101949025487,-0.4422788605697151,1705.4945054945053,97.07704096654732,30.8981430582935,
1770982169642.0027,5.0978260869565215,-5.8478260869565215,1.6304347826086956,3.1837223219628963,-9.235188509874327,-0.7588270496708558,4111.355311355311,1956.0439560439559,2.0,3.8996336996337,256.4343415367274,0.47328244274809156,-9.297709923664122,0.41221374045801523,-0.9160419790104948,0.07346326836581708,-0.4587706146926537,2052.014652014652,97.07419531954584,30.8981430582935,
1770982169661.534,5.173913043478261,-5.793478260869565,1.684782608695652,3.241172950329144,-9.180131657690005,-0.713345302214243,4087.912087912088,1925.2747252747251,2.0,3.8996336996337,256.4343415367274,0.3053435114503817,-9.48091603053435,1.0229007633587786,-0.9160419790104948,0.07946026986506746,-0.4452773613193403,2386.080586080586,97.07419531954584,30.8981430582935,
1770982169681.065,5.184782608695652,-5.793478260869565,1.684782608695652,3.262716935966487,-9.16816277678037,-0.7157390783961699,4112.820512820513,1954.5787545787543,2.0,3.901098901098901,256.3380281690141,-1.2366412213740459,-8.748091603053435,1.9389312977099236,-0.9220389805097451,0.08845577211394302,-0.4497751124437781,2617.5824175824173,97.07419531954584,30.8981430582935,
1770982169700.596,5.184782608695652,-5.793478260869565,1.684782608695652,3.2986235786953917,-9.175344105326152,-0.6918013165769,4111.355311355311,1956.7765567765566,2.0,3.901098901098901,256.3380281690141,-1.7709923664122136,-7.603053435114504,1.8931297709923662,-0.9160419790104948,0.06896551724137931,-0.43928035982008995,2698.168498168498,97.07134967533834,30.8981430582935,
1770982169720.1272,5.1521739130434785,-5.793478260869565,1.6739130434782608,3.277079593058049,-9.149012567324954,-0.708557749850389,4099.6336996336995,1940.6593406593406,2.0,3.901098901098901,256.3380281690141,-1.5267175572519083,-6.5038167938931295,2.610687022900763,-0.9175412293853074,0.06746626686656672,-0.4467766116941529,2614.6520146520143,97.06281275947967,30.8981430582935,
1770982169739.6582,5.173913043478261,-5.771739130434782,1.7065217391304348,3.262716935966487,-9.12986235786954,-0.6822262118491921,4084.981684981685,1912.8205128205127,2.0,3.901098901098901,256.3380281690141,-1.6335877862595418,-6.198473282442748,3.0229007633587783,-0.9130434782608695,0.08095952023988005,-0.44377811094452774,2416.8498168498168,97.06281275947967,30.8981430582935,
1770982169759.1897,5.195652173913043,-5.771739130434782,1.7282608695652173,3.257929383602633,-9.151406343506881,-0.6439257929383603,4111.355311355311,1944.3223443223442,2.0,3.901098901098901,256.3380281690141,-1.8778625954198473,-6.549618320610687,3.5114503816793894,-0.9220389805097451,0.07496251874062969,-0.4407796101949025,2153.846153846154,97.08273226893219,30.8981430582935,
1770982169778.7205,5.217391304347826,-5.782608695652174,1.75,3.286654697785757,-9.132256134051467,-0.6295631358467983,4112.820512820513,1958.974358974359,2.0,3.901098901098901,256.3380281690141,-1.465648854961832,-6.106870229007633,4.5038167938931295,-0.9055472263868065,0.07196401799100449,-0.43928035982008995,1877.6556776556774,97.07704096654732,30.8981430582935,
1770982169798.2517,5.239130434782608,-5.760869565217392,1.7391304347826086,3.33213644524237,-9.122681029323758,-0.5960502692998204,4111.355311355311,1956.7765567765566,2.0,3.901098901098901,256.3380281690141,-1.816793893129771,-5.572519083969466,4.5038167938931295,-0.9190404797601199,0.0944527736131934,-0.4422788605697151,1624.1758241758241,97.07419531954584,30.8981430582935,
1770982169817.7827,5.271739130434782,-5.782608695652174,1.7608695652173914,3.3656493117893476,-9.13704368641532,-0.6175942549371634,4087.912087912088,1924.5421245421244,2.0,3.901098901098901,256.3380281690141,-2.595419847328244,-3.9541984732824424,4.748091603053435,-0.9145427286356821,0.07646176911544228,-0.43628185907046474,1421.245421245421,97.07134967533834,30.8981430582935,
1770982169837.3137,5.25,-5.826086956521739,1.75,3.3584679832435667,-9.211250748055056,-0.5912627169359664,4112.820512820513,1953.8461538461538,2.0,3.902564102564103,256.2417871222076,-2.2748091603053435,-3.2671755725190836,4.900763358778626,-0.9085457271364318,0.07646176911544228,-0.4467766116941529,1266.6666666666665,97.07134967533834,30.8981430582935,
1770982169856.845,5.195652173913043,-5.826086956521739,1.7717391304347825,3.3225613405146617,-9.223219628964692,-0.6008378216636744,4111.355311355311,1956.7765567765566,2.0,3.902564102564103,256.2417871222076,-1.8015267175572518,-3.480916030534351,4.549618320610687,-0.9085457271364318,0.08545727136431784,-0.43928035982008995,1158.974358974359,97.06565839530525,30.8981430582935,
1770982169876.376,5.206521739130435,-5.83695652173913,1.7717391304347825,3.3081986834231,-9.201675643327349,-0.6152004787552364,4099.6336996336995,1940.6593406593406,2.0,3.902564102564103,256.2417871222076,-1.3587786259541985,-3.8167938931297707,3.709923664122137,-0.9070464767616192,0.08395802098950525,-0.4452773613193403,1104.029304029304,97.07134967533834,30.8981430582935,
1770982169895.907,5.184782608695652,-5.869565217391304,1.7717391304347825,3.286654697785757,-9.26391382405745,-0.6128067025733094,4112.820512820513,1958.974358974359,2.0,3.901098901098901,256.3380281690141,-0.6106870229007634,-5.404580152671755,3.0534351145038165,-0.9070464767616192,0.09745127436281859,-0.4512743628185907,1104.7619047619046,97.07134967533834,30.8981430582935,
1770982169915.4382,5.141304347826087,-5.880434782608695,1.7608695652173914,3.257929383602633,-9.271095152603232,-0.6367444643925793,4112.820512820513,1963.3699633699632,2.0,3.901098901098901,256.3380281690141,0.22900763358778625,-6.65648854961832,1.618320610687023,-0.9130434782608695,0.06746626686656672,-0.44377811094452774,1144.3223443223442,97.07419531954584,30.8981430582935,
1770982169934.9692,5.08695652173913,-5.913043478260869,1.7717391304347825,3.2004787552363854,-9.285457809694794,-0.6247755834829444,4111.355311355311,1958.974358974359,2.0,3.901098901098901,256.3380281690141,0.42748091603053434,-7.511450381679389,0.3053435114503817,-0.9145427286356821,0.08395802098950525,-0.44377811094452774,1203.6630036630036,97.07704096654732,30.8981430582935,
1770982169954.5002,5.043478260869565,-5.913043478260869,1.75,3.1406343506882104,-9.314183123877918,-0.6343506882106523,4112.820512820513,1963.3699633699632,2.0,3.901098901098901,256.3380281690141,0.9312977099236641,-8.65648854961832,-0.42748091603053434,-0.9100449775112444,0.07646176911544228,-0.43478260869565216,1269.5970695970695,97.07704096654732,30.8981430582935,
1770982169974.0315,5.021739130434782,-5.945652173913043,1.7282608695652173,3.1071214841412327,-9.333333333333334,-0.6606822262118491,4109.89010989011,1958.2417582417581,2.0,3.8996336996337,256.4343415367274,1.2061068702290076,-10.427480916030534,-1.3893129770992365,-0.9160419790104948,0.07796101949025487,-0.4497751124437781,1337.7289377289376,97.07419531954584,30.8981430582935,
1770982169993.5625,4.967391304347826,-5.945652173913043,1.717391304347826,3.078396169958109,-9.33572710951526,-0.6439257929383603,4112.820512820513,1963.3699633699632,2.0,3.8996336996337,256.4343415367274,1.8473282442748091,-11.969465648854962,-2.549618320610687,-0.9040479760119939,0.10344827586206896,-0.43928035982008995,1377.2893772893772,97.07419531954584,30.8981430582935,
1770982170013.0938,4.9021739130434785,-6.021739130434782,1.7391304347826086,2.9802513464991023,-9.395571514063436,-0.6511071214841412,4111.355311355311,1959.7069597069597,2.0,3.8996336996337,256.4343415367274,2.1221374045801524,-14.13740458015267,-3.2671755725190836,-0.9085457271364318,0.06596701649175413,-0.4422788605697151,1400.7326007326005,97.07260473395212,30.88809309238568,
1770982170032.6248,4.891304347826087,-6.065217391304348,1.717391304347826,2.9658886894075405,-9.46259724715739,-0.6535008976660682,4096.7032967032965,1934.7985347985348,2.0,3.8996336996337,256.4343415367274,2.427480916030534,-16.53435114503817,-4.33587786259542,-0.9085457271364318,0.0704647676161919,-0.4467766116941529,1403.6630036630036,97.06975913601158,30.88809309238568,
1770982170052.1558,4.956521739130435,-6.0978260869565215,1.7391304347826086,3.018551765409934,-9.496110113704368,-0.6271693596648713,4112.820512820513,1956.7765567765566,2.0,3.8996336996337,256.4343415367274,2.854961832061069,-18.106870229007633,-4.7328244274809155,-0.9055472263868065,0.06896551724137931,-0.4407796101949025,1381.6849816849815,97.07260473395212,30.88809309238568,
1770982170071.687,4.891304347826087,-6.043478260869565,1.7826086956521738,2.9491322561340514,-9.460203470975463,-0.6032315978456014,4111.355311355311,1957.5091575091574,2.0,3.8996336996337,256.4343415367274,3.4351145038167936,-19.083969465648853,-4.99236641221374,-0.9070464767616192,0.07796101949025487,-0.43928035982008995,1350.9157509157508,97.07260473395212,30.88809309238568,
1770982170091.218,4.83695652173913,-5.978260869565217,1.8152173913043477,2.9036505086774387,-9.390783961699581,-0.5625374027528426,4109.89010989011,1956.0439560439559,2.0,3.8981684981684985,256.5307273068972,3.9083969465648853,-19.679389312977097,-5.206106870229007,-0.9070464767616192,0.07196401799100449,-0.4407796101949025,1318.6813186813185,97.07545033468655,30.88809309238568,
1770982170110.7493,4.804347826086956,-5.945652173913043,1.8369565217391304,2.848593656493118,-9.352483542788748,-0.5362058647516457,4111.355311355311,1956.7765567765566,2.0,3.8981684981684985,256.5307273068972,4.106870229007633,-20.80916030534351,-6.351145038167939,-0.9040479760119939,0.07796101949025487,-0.43628185907046474,1271.7948717948716,97.07260473395212,30.88809309238568,
1770982170130.2805,4.771739130434782,-5.9021739130434785,1.858695652173913,2.83901855176541,-9.33572710951526,-0.5194494314781568,4108.424908424908,1950.18315018315,2.0,3.8981684981684985,256.5307273068972,4.2748091603053435,-22.427480916030532,-6.595419847328244,-0.9010494752623688,0.06896551724137931,-0.4482758620689655,1230.03663003663,97.07545033468655,30.88809309238568,
1770982170149.8113,4.75,-5.804347826086956,1.8695652173913042,2.812687013764213,-9.249551166965889,-0.476361460203471,4109.89010989011,1954.5787545787543,2.0,3.896703296703297,256.6271855611957,4.99236641221374,-23.61832061068702,-7.190839694656488,-0.9010494752623688,0.0944527736131934,-0.43778110944527737,1194.8717948717947,97.07545033468655,30.88809309238568,
1770982170169.3423,4.760869565217392,-5.717391304347826,1.891304347826087,2.786355475763016,-9.12986235786954,-0.4907241172950329,4109.89010989011,1956.0439560439559,2.0,3.896703296703297,256.6271855611957,5.190839694656488,-24.12213740458015,-6.946564885496183,-0.8905547226386806,0.07946026986506746,-0.43778110944527737,1167.7655677655678,97.07545033468655,30.88809309238568,
1770982170188.8735,4.739130434782608,-5.717391304347826,1.9130434782608696,2.783961699581089,-9.084380610412927,-0.457211250748055,4096.7032967032965,1933.3333333333333,2.0,3.896703296703297,256.6271855611957,5.022900763358779,-23.98473282442748,-6.519083969465648,-0.8950524737631184,0.08095952023988005,-0.4452773613193403,1150.9157509157508,97.07829593821486,30.88809309238568,
1770982170208.4048,4.717391304347826,-5.695652173913043,1.967391304347826,2.783961699581089,-9.060442848593656,-0.4260921603830042,4111.355311355311,1950.18315018315,2.0,3.8952380952380956,256.72371638141806,4.65648854961832,-23.32824427480916,-5.603053435114504,-0.8980509745127436,0.08545727136431784,-0.44377811094452774,1152.3809523809523,97.07545033468655,30.88809309238568,
1770982170227.9358,4.706521739130435,-5.641304347826087,1.9891304347826086,2.7648114901256733,-9.000598444045481,-0.36385397965290245,4111.355311355311,1954.5787545787543,2.0,3.8952380952380956,256.72371638141806,4.564885496183206,-22.564885496183205,-4.381679389312977,-0.8920539730134932,0.06896551724137931,-0.4407796101949025,1162.6373626373625,97.07260473395212,30.88809309238568,
1770982170247.4668,4.663043478260869,-5.619565217391304,1.9456521739130435,2.7145421903052065,-8.952722920406941,-0.3973668461998803,4108.424908424908,1949.4505494505493,2.0,3.8952380952380956,256.72371638141806,4.67175572519084,-22.015267175572518,-2.351145038167939,-0.8980509745127436,0.10494752623688156,-0.45727136431784104,1173.6263736263736,97.07260473395212,30.88809309238568,
1770982170266.998,4.673913043478261,-5.663043478260869,1.9782608695652173,2.6929982046678633,-8.998204667863554,-0.3997606223818073,4111.355311355311,1954.5787545787543,2.0,3.893772893772894,256.8203198494826,4.045801526717557,-21.740458015267176,-0.8091603053435115,-0.896551724137931,0.07346326836581708,-0.4482758620689655,1184.6153846153845,97.07545033468655,30.88809309238568,
1770982170286.529,4.695652173913043,-5.630434782608695,2.043478260869565,2.7121484141232792,-9.022142429682825,-0.31358467983243565,4087.912087912088,1923.8095238095236,2.0,3.893772893772894,256.8203198494826,4.3206106870229,-21.63358778625954,1.2366412213740459,-0.8950524737631184,0.06896551724137931,-0.4482758620689655,1187.5457875457876,97.07545033468655,30.88809309238568,
1770982170306.0603,4.739130434782608,-5.5978260869565215,1.9782608695652173,2.781567923399162,-8.947935368043089,-0.31597845601436264,4084.981684981685,1907.6923076923076,2.0,3.893772893772894,256.8203198494826,4.305343511450381,-21.251908396946565,3.099236641221374,-0.896551724137931,0.07946026986506746,-0.4422788605697151,1173.6263736263736,97.07260473395212,30.88809309238568,
1770982170325.5913,4.782608695652174,-5.630434782608695,1.9565217391304348,2.829443447037702,-8.98623578695392,-0.38061041292639136,4111.355311355311,1942.8571428571427,2.0,3.8923076923076927,256.9169960474308,4.229007633587786,-20.900763358778626,4.931297709923664,-0.896551724137931,0.07946026986506746,-0.4512743628185907,1146.5201465201465,97.07260473395212,30.88809309238568,
1770982170345.1223,4.83695652173913,-5.663043478260869,1.9891304347826086,2.8701376421304605,-9.024536205864752,-0.3973668461998803,4095.238095238095,1935.5311355311353,2.0,3.8923076923076927,256.9169960474308,4.106870229007633,-19.740458015267176,5.83206106870229,-0.881559220389805,0.07496251874062969,-0.4452773613193403,1147.2527472527472,97.07545033468655,30.88809309238568,
1770982170364.6536,4.858695652173913,-5.684782608695652,1.9891304347826086,2.9323758228605623,-9.06523040095751,-0.34709754637941354,4084.981684981685,1904.7619047619046,2.0,3.8908424908424912,257.01374505742797,4.091603053435114,-18.47328244274809,6.580152671755725,-0.8905547226386806,0.07196401799100449,-0.43778110944527737,1243.2234432234432,97.06975913601158,30.88809309238568,
1770982170384.1846,4.891304347826087,-5.804347826086956,1.967391304347826,2.9491322561340514,-9.156193895870736,-0.36385397965290245,4112.820512820513,1948.7179487179485,2.0,3.8893772893772898,257.110566961763,3.5114503816793894,-17.801526717557252,6.8396946564885495,-0.8845577211394302,0.06596701649175413,-0.4407796101949025,1454.212454212454,97.07260473395212,30.88809309238568,
1770982170403.7156,4.913043478260869,-5.9021739130434785,1.9456521739130435,2.9778575703171755,-9.275882704967085,-0.4260921603830042,4109.89010989011,1953.8461538461538,2.0,3.887912087912088,257.20746184284906,3.16030534351145,-17.053435114503817,7.297709923664121,-0.8830584707646176,0.08095952023988005,-0.4422788605697151,1766.3003663003662,97.06975913601158,30.88809309238568,
1770982170423.2468,4.956521739130435,-5.956521739130435,1.9782608695652173,3.035308198683423,-9.342908438061041,-0.3877917414721723,4099.6336996336995,1940.6593406593406,2.0,3.8864468864468873,257.3044297832233,3.114503816793893,-15.877862595419847,7.893129770992366,-0.8800599700149925,0.08395802098950525,-0.44377811094452774,2113.5531135531132,97.06406794851213,30.88809309238568,
1770982170442.7778,4.978260869565217,-6.032608695652174,1.9565217391304348,3.035308198683423,-9.443447037701974,-0.3782166367444644,4111.355311355311,1953.113553113553,2.0,3.8864468864468873,257.3044297832233,2.427480916030534,-15.526717557251908,8.229007633587786,-0.8800599700149925,0.07646176911544228,-0.43478260869565216,2403.6630036630036,97.07545033468655,30.88809309238568,
1770982170462.309,5.021739130434782,-6.1521739130434785,1.9130434782608696,3.080789946140036,-9.553560742070616,-0.4380610412926391,4084.981684981685,1916.4835164835163,2.0,3.8849816849816854,257.40147086554776,1.8778625954198473,-16.076335877862594,8.13740458015267,-0.8845577211394302,0.10344827586206896,-0.43478260869565216,2562.6373626373625,97.07260473395212,30.88809309238568,
1770982170481.84,5.0978260869565215,-6.184782608695652,1.934782608695652,3.1382405745062836,-9.620586475164572,-0.40933572710951527,4112.820512820513,1951.6483516483515,2.0,3.8849816849816854,257.40147086554776,1.5267175572519083,-15.862595419847327,8.061068702290076,-0.881559220389805,0.06746626686656672,-0.43778110944527737,2568.4981684981685,97.07545033468655,30.88809309238568,
1770982170501.371,5.119565217391304,-6.141304347826087,1.967391304347826,3.1885098743267504,-9.591861160981448,-0.3901855176540993,4096.7032967032965,1931.8681318681317,2.0,3.882051282051283,257.5957727873183,1.6335877862595418,-15.450381679389313,8.106870229007633,-0.8785607196401799,0.07796101949025487,-0.43178410794602695,2438.8278388278386,97.07260473395212,30.88809309238568,
1770982170520.9023,5.1521739130434785,-6.076086956521739,2.010869565217391,3.2555356074207062,-9.496110113704368,-0.33273488928785155,4112.820512820513,1956.0439560439559,2.0,3.8805860805860815,257.6930337927128,1.3129770992366412,-14.274809160305344,7.923664122137405,-0.8695652173913043,0.095952023988006,-0.4407796101949025,2214.6520146520147,97.07545033468655,30.88809309238568,
1770982170540.433,5.217391304347826,-5.967391304347826,2.0543478260869565,3.272292040694195,-9.443447037701974,-0.33512866546977854,4112.820512820513,1962.6373626373625,2.0,3.879120879120879,257.79036827195466,0.8549618320610687,-12.030534351145038,7.541984732824427,-0.8800599700149925,0.08695652173913043,-0.4407796101949025,1957.5091575091574,97.06691354086492,30.88809309238568,
1770982170559.9646,5.239130434782608,-5.782608695652174,2.0978260869565215,3.3488928785158585,-9.247157390783961,-0.26810293237582283,4109.89010989011,1957.5091575091574,2.0,3.879120879120879,257.79036827195466,0.3511450381679389,-8.290076335877862,6.8396946564885495,-0.8635682158920539,0.08395802098950525,-0.4512743628185907,1726.007326007326,97.07545033468655,30.88809309238568,
1770982170579.4956,5.228260869565217,-5.739130434782608,2.152173913043478,3.3656493117893476,-9.127468581687612,-0.21783363255535607,4112.820512820513,1962.6373626373625,2.0,3.877655677655678,257.88777630833175,-1.282442748091603,-4.931297709923664,6.091603053435114,-0.8725637181409295,0.10344827586206896,-0.4422788605697151,1532.6007326007325,97.08114154453708,30.88809309238568,
1770982170599.0266,5.239130434782608,-5.804347826086956,2.130434782608696,3.344105326152005,-9.141831238779174,-0.2130460801915021,4089.377289377289,1932.6007326007325,2.0,3.876190476190477,257.98525798525793,-1.8778625954198473,-0.9770992366412213,5.312977099236641,-0.8620689655172413,0.10194902548725637,-0.45277361319340326,1370.6959706959706,97.07545033468655,30.88809309238568,
1770982170618.558,5.217391304347826,-5.83695652173913,2.1739130434782608,3.3297426690604426,-9.2327947336924,-0.1699581089168163,4084.981684981685,1910.6227106227104,2.0,3.8747252747252747,258.0828133862734,-2.1068702290076335,2.7022900763358777,4.8396946564885495,-0.8665667166416792,0.07496251874062969,-0.4332833583208396,1239.5604395604396,97.07545033468655,30.88809309238568,
1770982170638.0889,5.108695652173913,-5.83695652173913,2.1739130434782608,3.269898264512268,-9.223219628964692,-0.14602034709754638,4112.820512820513,1949.4505494505493,2.0,3.8747252747252747,258.0828133862734,-1.7862595419847327,5.343511450381679,3.9083969465648853,-0.8725637181409295,0.08245877061469264,-0.45577211394302847,1145.054945054945,97.07260473395212,30.88809309238568,
1770982170657.62,5.076086956521739,-5.8478260869565215,2.1739130434782608,3.1885098743267504,-9.220825852782765,-0.12687013764213045,4093.7728937728934,1931.135531135531,2.0,3.8732600732600724,258.1804425950445,-1.8625954198473282,6.549618320610687,2.2748091603053435,-0.8680659670164917,0.08995502248875561,-0.45577211394302847,1089.3772893772893,97.06691354086492,30.88809309238568,
1770982170677.1511,4.989130434782608,-5.880434782608695,2.1630434782608696,3.1238779174147218,-9.249551166965889,-0.19628964691801315,4084.981684981685,1910.6227106227104,2.0,3.871794871794871,258.2781456953643,-0.8549618320610687,5.511450381679389,0.732824427480916,-0.8680659670164917,0.09295352323838081,-0.44377811094452774,1079.8534798534797,97.07260473395212,30.88809309238568,
1770982170696.682,4.978260869565217,-5.9021739130434785,2.1630434782608696,3.08557749850389,-9.278276481149012,-0.17474566128067026,4112.820512820513,1949.4505494505493,2.0,3.87032967032967,258.3759227711528,-0.3053435114503817,3.9847328244274807,-1.2061068702290076,-0.8740629685157421,0.10644677661169415,-0.4422788605697151,1110.6227106227107,97.06406794851213,30.88809309238568,
1770982170716.2134,4.978260869565217,-5.934782608695652,2.119565217391304,3.03770197486535,-9.31897067624177,-0.20586475164572113,4111.355311355311,1954.5787545787543,2.0,3.868864468864468,258.47377390645715,0.5190839694656488,1.9083969465648853,-4.152671755725191,-0.8665667166416792,0.07646176911544228,-0.43778110944527737,1150.9157509157508,97.07260473395212,30.88809309238568,
1770982170735.7444,4.945652173913043,-5.978260869565217,2.0978260869565215,3.025733093955715,-9.362058647516458,-0.22501496110113703,4098.1684981684975,1939.9267399267399,2.0,3.868864468864468,258.47377390645715,0.4427480916030534,0.9465648854961831,-6.213740458015267,-0.8710644677661169,0.08995502248875561,-0.45277361319340326,1197.069597069597,97.07260473395212,30.88809309238568,
1770982170755.2756,4.923913043478261,-6.0,2.0760869565217392,3.0041891083183723,-9.402752842609216,-0.26810293237582283,4089.377289377289,1926.007326007326,2.0,3.8673992673992674,258.5716991854518,0.5038167938931297,0.15267175572519084,-7.908396946564885,-0.8695652173913043,0.08545727136431784,-0.4452773613193403,1249.084249084249,97.07545033468655,30.88809309238568,
1770982170774.8066,4.880434782608695,-5.967391304347826,2.043478260869565,2.963494913225613,-9.374027528426092,-0.29204069419509276,4084.981684981685,1909.1575091575091,2.0,3.865934065934066,258.6696986924389,0.4427480916030534,-0.04580152671755725,-9.007633587786259,-0.8710644677661169,0.08845577211394302,-0.4542728635682159,1293.7728937728937,97.07545033468655,30.88809309238568,
1770982170794.3376,4.8478260869565215,-5.913043478260869,2.0217391304347827,2.9108318372232196,-9.309395571514063,-0.33034111310592457,4112.820512820513,1949.4505494505493,2.0,3.865934065934066,258.6696986924389,0.38167938931297707,0.04580152671755725,-10.13740458015267,-0.8755622188905547,0.07346326836581708,-0.4497751124437781,1309.1575091575091,97.07260473395212,30.88809309238568,
1770982170813.869,4.804347826086956,-5.913043478260869,2.0217391304347827,2.8557749850388987,-9.292639138240574,-0.34709754637941354,4092.307692307692,1929.6703296703295,2.0,3.864468864468864,258.76777251184836,-0.21374045801526717,0.7633587786259541,-11.068702290076336,-0.8800599700149925,0.10044977511244378,-0.4482758620689655,1306.227106227106,97.07260473395212,30.88809309238568,
1770982170833.4,4.771739130434782,-5.9021739130434785,1.967391304347826,2.83901855176541,-9.31897067624177,-0.34470377019748655,4112.820512820513,1955.311355311355,2.0,3.8630036630036626,258.8659207282382,-0.7022900763358778,0.732824427480916,-11.435114503816793,-0.8710644677661169,0.0914542728635682,-0.4587706146926537,1287.179487179487,97.07545033468655,30.88809309238568,
1770982170852.931,4.760869565217392,-5.9021739130434785,1.9782608695652173,2.783961699581089,-9.307001795332136,-0.3590664272890485,4111.355311355311,1956.0439560439559,2.0,3.8630036630036626,258.8659207282382,-1.0381679389312977,1.1450381679389312,-11.236641221374045,-0.8725637181409295,0.07646176911544228,-0.4422788605697151,1243.2234432234432,97.07545033468655,30.88809309238568,
1770982170872.4622,4.717391304347826,-5.8478260869565215,2.010869565217391,2.748055056852184,-9.235188509874327,-0.3375224416517056,4111.355311355311,1956.7765567765566,2.0,3.861538461538461,258.96414342629487,-1.4961832061068703,2.3206106870229006,-11.129770992366412,-0.8770614692653673,0.08395802098950525,-0.4497751124437781,1193.4065934065934,97.07260473395212,30.88809309238568,
1770982170891.9932,4.684782608695652,-5.793478260869565,2.043478260869565,2.7289048473967683,-9.165769000598443,-0.2992220227408737,4111.355311355311,1956.7765567765566,2.0,3.861538461538461,258.96414342629487,-1.9236641221374045,3.4351145038167936,-10.51908396946565,-0.8770614692653673,0.10944527736131934,-0.4542728635682159,1158.2417582417581,97.07829593821486,30.88809309238568,
1770982170911.5244,4.608695652173913,-5.771739130434782,2.0652173913043477,2.6642728904847397,-9.132256134051467,-0.2992220227408737,4090.8424908424904,1926.007326007326,2.0,3.8600732600732592,259.0624406908332,-2.9618320610687023,4.259541984732825,-9.190839694656487,-0.8770614692653673,0.07646176911544228,-0.45727136431784104,1133.3333333333333,97.07545033468655,30.88809309238568,
1770982170931.0554,4.684782608695652,-5.815217391304348,2.043478260869565,2.7121484141232792,-9.196888090963494,-0.29682824655894674,4084.981684981685,1909.1575091575091,2.0,3.8586080586080582,259.16081260679704,-4.290076335877862,5.007633587786259,-7.648854961832061,-0.8755622188905547,0.07646176911544228,-0.46476761619190404,1120.8791208791208,97.07545033468655,30.88809309238568,
1770982170950.5864,4.663043478260869,-5.880434782608695,2.0869565217391304,2.7384799521244765,-9.20885697187313,-0.24655894673847994,4111.355311355311,1942.8571428571427,2.0,3.8586080586080582,259.16081260679704,-4.8396946564885495,5.694656488549618,-6.244274809160305,-0.8755622188905547,0.07796101949025487,-0.4512743628185907,1111.3553113553112,97.07260473395212,30.88809309238568,
1770982170970.1177,4.630434782608695,-5.8478260869565215,2.130434782608696,2.7001795332136447,-9.266307600239378,-0.24416517055655296,4090.8424908424904,1921.6117216117216,2.0,3.8571428571428568,259.2592592592593,-5.66412213740458,6.6106870229007635,-4.824427480916031,-0.8785607196401799,0.08395802098950525,-0.4587706146926537,1103.2967032967033,97.07260473395212,30.88809309238568,
1770982170989.6487,4.6521739130434785,-5.815217391304348,2.108695652173913,2.6882106523040097,-9.201675643327349,-0.20586475164572113,4112.820512820513,1953.113553113553,2.0,3.8571428571428568,259.2592592592593,-5.587786259541985,6.137404580152672,-3.1755725190839694,-0.881559220389805,0.08245877061469264,-0.4422788605697151,1105.4945054945053,97.07545033468655,30.88809309238568,
1770982171009.18,4.684782608695652,-5.869565217391304,2.130434782608696,2.7001795332136447,-9.218432076600838,-0.22740873728306402,4111.355311355311,1956.0439560439559,2.0,3.8571428571428568,259.2592592592593,-6.33587786259542,5.633587786259541,-2.259541984732824,-0.8785607196401799,0.08695652173913043,-0.4452773613193403,1124.5421245421244,97.07465502260136,30.883068109868326,
1770982171028.711,4.695652173913043,-5.8478260869565215,2.130434782608696,2.7528426092160383,-9.244763614602034,-0.23219628964691802,4111.355311355311,1956.7765567765566,2.0,3.855677655677655,259.35778073342203,-7.038167938931298,6.366412213740458,-0.916030534351145,-0.8770614692653673,0.07496251874062969,-0.4407796101949025,1139.9267399267399,97.06896387019324,30.883068109868326,
1770982171048.242,4.695652173913043,-5.8478260869565215,2.2065217391304346,2.748055056852184,-9.247157390783961,-0.13883901855176542,4111.355311355311,1956.7765567765566,2.0,3.855677655677655,259.35778073342203,-7.022900763358779,7.648854961832061,-0.6259541984732824,-0.8845577211394302,0.07646176911544228,-0.4482758620689655,1153.113553113553,97.07465502260136,30.883068109868326,
1770982171067.7732,4.739130434782608,-5.83695652173913,2.1956521739130435,2.7528426092160383,-9.228007181328545,-0.12447636146020347,4111.355311355311,1956.7765567765566,2.0,3.855677655677655,259.35778073342203,-7.740458015267175,8.381679389312977,-0.030534351145038167,-0.8830584707646176,0.07646176911544228,-0.4497751124437781,1164.8351648351647,97.08034618618487,30.883068109868326,
1770982171087.3042,4.717391304347826,-5.9021739130434785,2.1847826086956523,2.762417713943746,-9.235188509874327,-0.14602034709754638,4111.355311355311,1956.7765567765566,2.0,3.855677655677655,259.35778073342203,-8.122137404580153,8.320610687022901,0.8091603053435115,-0.8800599700149925,0.08695652173913043,-0.4542728635682159,1172.161172161172,97.07465502260136,30.883068109868326,
1770982171106.8354,4.717391304347826,-5.858695652173913,2.25,2.7408737283064033,-9.244763614602034,-0.08378216636744464,4111.355311355311,1956.7765567765566,2.0,3.855677655677655,259.35778073342203,-8.442748091603054,8.229007633587786,1.2519083969465647,-0.8830584707646176,0.08545727136431784,-0.4542728635682159,1169.9633699633698,97.07750060299621,30.883068109868326,
