Shimmer_A679_TimestampSync_Unix_CAL,Shimmer_A679_Accel_LN_X_CAL,Shimmer_A679_Accel_LN_Y_CAL,Shimmer_A679_Accel_LN_Z_CAL,Shimmer_A679_Accel_WR_X_CAL,Shimmer_A679_Accel_WR_Y_CAL,Shimmer_A679_Accel_WR_Z_CAL,Shimmer_A679_Battery_CAL,Shimmer_A679_Ext_Exp_A15_CAL,Shimmer_A679_GSR_Range_CAL,Shimmer_A679_GSR_Skin_Conductance_CAL,Shimmer_A679_GSR_Skin_Resistance_CAL,Shimmer_A679_Gyro_X_CAL,Shimmer_A679_Gyro_Y_CAL,Shimmer_A679_Gyro_Z_CAL,Shimmer_A679_Mag_X_CAL,Shimmer_A679_Mag_Y_CAL,Shimmer_A679_Mag_Z_CAL,Shimmer_A679_PPG_A13_CAL,Shimmer_A679_Pressure_BMP280_CAL,Shimmer_A679_Temperature_BMP280_CAL,Unnamed: 21
1770984547006.7285,4.565217391304348,-5.945652173913043,2.130434782608696,2.594853381208857,-9.371633752244165,-0.22740873728306402,4036.6300366300366,1831.5018315018315,1.0,5.99098926625059,166.91734128674904,-4.351145038167939,1.8473282442748091,-2.2900763358778624,-0.8620689655172413,0.07496251874062969,-0.4512743628185907,1373.6263736263736,97.0427321372511,31.49109310740605,
1770984547026.2598,4.543478260869565,-5.978260869565217,2.152173913043478,2.580490724117295,-9.3836026331538,-0.1843207660083782,4064.468864468864,1857.142857142857,1.0,5.985884034664523,167.0597014925373,-4.870229007633587,3.282442748091603,-1.648854961832061,-0.8710644677661169,0.07496251874062969,-0.45277361319340326,1344.3223443223442,97.03703563778618,31.49109310740605,
1770984547045.7908,4.543478260869565,-5.978260869565217,2.1630434782608696,2.573309395571514,-9.405146618791143,-0.16756433273488927,4046.8864468864467,1839.5604395604394,1.0,5.99098926625059,166.91734128674904,-5.297709923664122,3.6030534351145036,-1.9236641221374045,-0.8680659670164917,0.07946026986506746,-0.4542728635682159,1312.8205128205127,97.03988388611906,31.49109310740605,
1770984547065.322,4.532608695652174,-5.945652173913043,2.108695652173913,2.551765409934171,-9.345302214242968,-0.20586475164572113,4065.9340659340655,1865.9340659340658,1.0,5.99098926625059,166.91734128674904,-5.114503816793893,3.66412213740458,-2.0763358778625953,-0.8680659670164917,0.06896551724137931,-0.4407796101949025,1278.3882783882782,97.02849090958246,31.49109310740605,
1770984547084.853,4.521739130434782,-5.978260869565217,2.0869565217391304,2.551765409934171,-9.371633752244165,-0.23937761819269898,4064.468864468864,1866.6666666666665,1.0,5.985884034664523,167.0597014925373,-4.67175572519084,2.763358778625954,-2.0,-0.8710644677661169,0.09745127436281859,-0.43778110944527737,1257.8754578754579,97.03703563778618,31.49109310740605,
1770984547104.384,4.554347826086956,-5.989130434782608,2.141304347826087,2.590065828845003,-9.42429682824656,-0.20107719928186715,4064.468864468864,1867.3992673992673,1.0,5.985884034664523,167.0597014925373,-4.290076335877862,1.8778625954198473,-1.9694656488549618,-0.8665667166416792,0.06446776611694152,-0.4512743628185907,1262.2710622710622,97.03418739225243,31.49109310740605,
1770984547123.9153,4.58695652173913,-5.945652173913043,2.0652173913043477,2.618791143028127,-9.35966487133453,-0.236983842010772,4051.282051282051,1849.8168498168498,1.0,5.985884034664523,167.0597014925373,-4.137404580152672,1.8931297709923662,-2.030534351145038,-0.8605697151424287,0.06746626686656672,-0.4452773613193403,1275.4578754578754,97.03418739225243,31.49109310740605,
1770984547143.4463,4.608695652173913,-5.945652173913043,2.0652173913043477,2.6307600239377615,-9.330939557151407,-0.26810293237582283,4041.0256410256407,1829.3040293040292,1.0,5.985884034664523,167.0597014925373,-4.885496183206107,2.610687022900763,-2.030534351145038,-0.8665667166416792,0.06896551724137931,-0.4482758620689655,1273.260073260073,97.03703563778618,31.49109310740605,
1770984547162.9775,4.576086956521739,-6.032608695652174,2.0869565217391304,2.6355475763016156,-9.429084380610412,-0.2537402752842609,4038.0952380952376,1816.117216117216,1.0,5.985884034664523,167.0597014925373,-5.908396946564885,2.6717557251908395,-1.8778625954198473,-0.8650674662668666,0.07796101949025487,-0.4542728635682159,1274.7252747252746,97.03703563778618,31.49109310740605,
1770984547182.5083,4.58695652173913,-6.0978260869565215,2.0978260869565215,2.6163973668461997,-9.541591861160981,-0.23937761819269898,4064.468864468864,1853.4798534798533,1.0,5.980778803078455,167.202304737516,-5.603053435114504,2.091603053435114,-1.9083969465648853,-0.8680659670164917,0.07796101949025487,-0.4482758620689655,1279.120879120879,97.03703563778618,31.49109310740605,
1770984547202.0396,4.608695652173913,-6.065217391304348,2.0652173913043477,2.633153800119689,-9.498503889886296,-0.26570915619389585,4046.8864468864467,1838.8278388278386,1.0,5.980778803078455,167.202304737516,-5.49618320610687,1.8015267175572518,-2.3053435114503817,-0.8605697151424287,0.08845577211394302,-0.4482758620689655,1287.179487179487,97.03703563778618,31.49109310740605,
1770984547221.5708,4.576086956521739,-5.989130434782608,2.043478260869565,2.5924596050269297,-9.419509275882705,-0.2800718132854578,4038.0952380952376,1819.047619047619,1.0,5.980778803078455,167.202304737516,-5.374045801526718,1.9389312977099236,-2.717557251908397,-0.8635682158920539,0.07346326836581708,-0.4512743628185907,1306.227106227106,97.0427321372511,31.49109310740605,
1770984547241.1018,4.58695652173913,-5.923913043478261,2.0978260869565215,2.621184919210054,-9.345302214242968,-0.21543985637342908,4065.9340659340655,1860.07326007326,1.0,5.980778803078455,167.202304737516,-5.938931297709924,2.198473282442748,-2.0610687022900764,-0.8755622188905547,0.09295352323838081,-0.45277361319340326,1350.18315018315,97.03988388611906,31.49109310740605,
1770984547260.633,4.619565217391305,-5.8478260869565215,2.141304347826087,2.6594853381208856,-9.283064033512867,-0.18192698982645122,4064.468864468864,1865.201465201465,1.0,5.980778803078455,167.202304737516,-6.0,3.4351145038167936,-1.2213740458015268,-0.8725637181409295,0.06146926536731634,-0.45727136431784104,1463.7362637362637,97.03988388611906,31.49109310740605,
1770984547280.164,4.608695652173913,-5.815217391304348,2.119565217391304,2.6523040095751047,-9.239976062238181,-0.18192698982645122,4065.9340659340655,1873.260073260073,1.0,5.980778803078455,167.202304737516,-6.549618320610687,4.152671755725191,-0.15267175572519084,-0.8545727136431783,0.07646176911544228,-0.4452773613193403,1641.7582417582416,97.03703563778618,31.49109310740605,
1770984547299.695,4.630434782608695,-5.75,2.0869565217391304,2.645122681029324,-9.196888090963494,-0.2513464991023339,4042.490842490842,1842.4908424908424,1.0,5.980778803078455,167.202304737516,-6.99236641221374,5.374045801526718,0.9770992366412213,-0.8680659670164917,0.07346326836581708,-0.4482758620689655,1836.6300366300366,97.03988388611906,31.49109310740605,
1770984547319.2263,4.717391304347826,-5.717391304347826,2.0760869565217392,2.6906044284859365,-9.127468581687612,-0.24177139437462597,4064.468864468864,1860.8058608058607,1.0,5.980778803078455,167.202304737516,-7.587786259541985,6.595419847328244,2.564885496183206,-0.8710644677661169,0.07646176911544228,-0.4452773613193403,1997.069597069597,97.03418739225243,31.49109310740605,
1770984547338.757,4.782608695652174,-5.75,2.108695652173913,2.79114302812687,-9.139437462597247,-0.22740873728306402,4064.468864468864,1865.9340659340658,1.0,5.980778803078455,167.202304737516,-8.366412213740457,8.229007633587786,3.0534351145038165,-0.8650674662668666,0.08995502248875561,-0.4482758620689655,2088.6446886446884,97.03703563778618,31.49109310740605,
1770984547358.2886,4.826086956521739,-5.760869565217392,2.043478260869565,2.865350089766607,-9.156193895870736,-0.2800718132854578,4045.421245421245,1841.0256410256409,1.0,5.980778803078455,167.202304737516,-8.732824427480915,10.229007633587786,4.1679389312977095,-0.8680659670164917,0.07796101949025487,-0.43928035982008995,2079.8534798534797,97.03418739225243,31.49109310740605,
1770984547377.8196,4.83695652173913,-5.771739130434782,2.0,2.9012567324955114,-9.165769000598443,-0.3040095751047277,4038.0952380952376,1819.7802197802196,1.0,5.975673571492387,167.3451516445963,-9.938931297709923,12.106870229007633,4.0,-0.8680659670164917,0.0944527736131934,-0.4452773613193403,1968.4981684981683,97.03418739225243,31.49109310740605,
1770984547397.3506,4.880434782608695,-5.826086956521739,2.043478260869565,2.9012567324955114,-9.206463195691203,-0.3255535607420706,4064.468864468864,1853.4798534798533,1.0,5.975673571492387,167.3451516445963,-10.51908396946565,13.557251908396946,4.67175572519084,-0.8665667166416792,0.0914542728635682,-0.4542728635682159,1804.3956043956043,97.03418739225243,31.49109310740605,
1770984547416.8818,4.945652173913043,-5.869565217391304,2.0217391304347827,2.9922202274087373,-9.239976062238181,-0.3231597845601436,4064.468864468864,1863.003663003663,1.0,5.975673571492387,167.3451516445963,-11.633587786259541,15.14503816793893,5.022900763358779,-0.8590704647676162,0.06146926536731634,-0.43778110944527737,1633.6996336996335,97.03418739225243,31.49109310740605,
1770984547436.4128,4.945652173913043,-5.923913043478261,1.9891304347826086,3.042489527229204,-9.307001795332136,-0.3040095751047277,4065.9340659340655,1871.7948717948716,1.0,5.97056833990632,167.48824283881999,-12.732824427480915,16.946564885496183,5.49618320610687,-0.8770614692653673,0.0704647676161919,-0.4332833583208396,1471.062271062271,97.03418739225243,31.49109310740605,
1770984547455.9438,4.978260869565217,-5.978260869565217,1.967391304347826,3.042489527229204,-9.395571514063436,-0.3399162178336326,4043.9560439560437,1836.6300366300366,1.0,5.97056833990632,167.48824283881999,-12.931297709923664,19.206106870229007,5.557251908396946,-0.8710644677661169,0.07496251874062969,-0.4467766116941529,1336.9963369963368,97.03418739225243,31.49109310740605,
1770984547475.475,5.021739130434782,-6.0,2.0217391304347827,3.0903650508677436,-9.419509275882705,-0.3399162178336326,4036.6300366300366,1823.4432234432234,1.0,5.97056833990632,167.48824283881999,-13.038167938931297,20.641221374045802,5.083969465648854,-0.8740629685157421,0.07946026986506746,-0.4497751124437781,1247.6190476190475,97.03988388611906,31.49109310740605,
1770984547495.006,5.021739130434782,-5.967391304347826,2.0,3.104727707959306,-9.390783961699581,-0.3016157989228007,4064.468864468864,1861.5384615384614,1.0,5.97056833990632,167.48824283881999,-13.022900763358779,22.50381679389313,4.2748091603053435,-0.8695652173913043,0.09745127436281859,-0.4497751124437781,1219.7802197802198,97.03988388611906,31.49109310740605,
1770984547514.5374,4.989130434782608,-5.989130434782608,2.0760869565217392,3.073608617594255,-9.402752842609216,-0.2872531418312388,4043.9560439560437,1833.6996336996335,1.0,5.97056833990632,167.48824283881999,-13.236641221374045,23.34351145038168,3.32824427480916,-0.8650674662668666,0.08995502248875561,-0.4407796101949025,1230.03663003663,97.03703563778618,31.49109310740605,
1770984547534.0684,5.0,-5.978260869565217,2.043478260869565,3.080789946140036,-9.41472172351885,-0.29204069419509276,4065.9340659340655,1863.7362637362637,1.0,5.965463108320252,167.6315789473684,-13.114503816793892,24.16793893129771,1.6030534351145038,-0.8710644677661169,0.0944527736131934,-0.43778110944527737,1262.2710622710622,97.0427321372511,31.49109310740605,
1770984547553.5994,4.989130434782608,-5.989130434782608,2.043478260869565,3.0712148414123277,-9.390783961699581,-0.27767803710353084,4064.468864468864,1866.6666666666665,1.0,5.965463108320252,167.6315789473684,-12.67175572519084,25.557251908396946,0.16793893129770993,-0.8755622188905547,0.06596701649175413,-0.43778110944527737,1319.4139194139193,97.03703563778618,31.49109310740605,
1770984547573.1306,4.956521739130435,-5.967391304347826,2.0543478260869565,3.049670855774985,-9.388390185517654,-0.2872531418312388,4063.003663003663,1865.9340659340658,1.0,5.97056833990632,167.48824283881999,-12.50381679389313,26.99236641221374,-1.3740458015267174,-0.8740629685157421,0.06746626686656672,-0.44377811094452774,1389.0109890109889,97.03703563778618,31.49109310740605,
1770984547592.6616,4.869565217391305,-5.967391304347826,2.0217391304347827,2.963494913225613,-9.388390185517654,-0.31597845601436264,4063.003663003663,1865.9340659340658,1.0,5.965463108320252,167.6315789473684,-12.900763358778626,28.106870229007633,-2.33587786259542,-0.8740629685157421,0.07346326836581708,-0.4512743628185907,1455.6776556776556,97.03133914951788,31.49109310740605,
1770984547612.1929,4.826086956521739,-6.0,1.9891304347826086,2.8916816277678037,-9.409934171154998,-0.34709754637941354,4063.003663003663,1865.9340659340658,1.0,5.965463108320252,167.6315789473684,-12.564885496183205,29.053435114503817,-3.877862595419847,-0.8830584707646176,0.08095952023988005,-0.45277361319340326,1520.14652014652,97.03703563778618,31.49109310740605,
1770984547631.724,4.782608695652174,-6.021739130434782,1.9456521739130435,2.841412327947337,-9.405146618791143,-0.3877917414721723,4035.164835164835,1825.6410256410254,1.0,5.965463108320252,167.6315789473684,-12.473282442748092,29.78625954198473,-4.564885496183206,-0.8740629685157421,0.0944527736131934,-0.4512743628185907,1561.1721611721612,97.03703563778618,31.49109310740605,
1770984547651.255,4.728260869565217,-5.989130434782608,1.9239130434782608,2.793536804308797,-9.421903052064632,-0.457211250748055,4064.468864468864,1855.6776556776556,1.0,5.965463108320252,167.6315789473684,-12.442748091603052,30.99236641221374,-4.687022900763359,-0.881559220389805,0.08995502248875561,-0.44377811094452774,1567.032967032967,97.03703563778618,31.49109310740605,
1770984547670.786,4.717391304347826,-5.956521739130435,1.8695652173913042,2.771992818671454,-9.405146618791143,-0.5050867743865949,4042.490842490842,1837.3626373626373,1.0,5.965463108320252,167.6315789473684,-13.068702290076335,32.6412213740458,-5.1603053435114505,-0.8845577211394302,0.05997001499250375,-0.44377811094452774,1531.135531135531,97.03988388611906,31.49109310740605,
1770984547690.3171,4.663043478260869,-6.0,1.8152173913043477,2.750448833034111,-9.409934171154998,-0.5314183123877917,4064.468864468864,1858.6080586080584,1.0,5.965463108320252,167.6315789473684,-13.786259541984732,34.97709923664122,-4.549618320610687,-0.8830584707646176,0.0944527736131934,-0.4467766116941529,1486.4468864468863,97.03988388611906,31.49109310740605,
1770984547709.8484,4.6521739130434785,-6.0,1.826086956521739,2.6882106523040097,-9.412327947336923,-0.5433871932974267,4063.003663003663,1863.7362637362637,1.0,5.960357876734183,167.77516059957173,-14.6412213740458,36.99236641221374,-4.916030534351145,-0.8845577211394302,0.07496251874062969,-0.4452773613193403,1441.0256410256409,97.03418739225243,31.49109310740605,
1770984547729.3794,4.58695652173913,-5.956521739130435,1.8043478260869565,2.6403351286654697,-9.400359066427288,-0.5649311789347696,4061.5384615384614,1859.3406593406592,1.0,5.960357876734183,167.77516059957173,-15.450381679389313,38.51908396946565,-4.763358778625954,-0.8860569715142429,0.07346326836581708,-0.43778110944527737,1409.5238095238094,97.03703563778618,31.49109310740605,
1770984547748.9104,4.510869565217392,-5.967391304347826,1.8043478260869565,2.566128067025733,-9.395571514063436,-0.5529622980251346,4064.468864468864,1865.201465201465,1.0,5.955252645148117,167.9189884269181,-15.877862595419847,39.77099236641221,-4.458015267175572,-0.8920539730134932,0.07196401799100449,-0.4467766116941529,1383.150183150183,97.03988388611906,31.49109310740605,
1770984547768.4417,4.445652173913043,-5.923913043478261,1.7934782608695652,2.4847396768402152,-9.357271095152603,-0.5745062836624776,4064.468864468864,1866.6666666666665,1.0,5.955252645148117,167.9189884269181,-16.15267175572519,40.36641221374045,-3.6488549618320607,-0.8935532233883058,0.08695652173913043,-0.4587706146926537,1346.5201465201465,97.03703563778618,31.49109310740605,
1770984547787.973,4.456521739130435,-5.913043478260869,1.75,2.4631956912028725,-9.307001795332136,-0.5960502692998204,4064.468864468864,1867.3992673992673,1.0,5.955252645148117,167.9189884269181,-17.0381679389313,40.13740458015267,-3.0076335877862594,-0.8995502248875562,0.06446776611694152,-0.4467766116941529,1309.89010989011,97.03703563778618,31.49109310740605,
1770984547807.504,4.467391304347826,-5.880434782608695,1.7826086956521738,2.4751645721125075,-9.297426690604429,-0.5840813883901855,4064.468864468864,1867.3992673992673,1.0,5.950147413562048,168.06306306306305,-17.022900763358777,40.717557251908396,-2.16793893129771,-0.8980509745127436,0.06296851574212893,-0.45577211394302847,1282.7838827838827,97.03703563778618,31.49109310740605,
1770984547827.035,4.456521739130435,-5.869565217391304,1.7717391304347825,2.4560143626570916,-9.278276481149012,-0.5745062836624776,4043.9560439560437,1835.8974358974358,1.0,5.955252645148117,167.9189884269181,-17.450381679389313,41.26717557251908,-1.5267175572519083,-0.9040479760119939,0.07646176911544228,-0.46026986506746626,1274.7252747252746,97.03418739225243,31.49109310740605,
1770984547846.566,4.434782608695652,-5.891304347826087,1.8043478260869565,2.4679832435667266,-9.292639138240574,-0.5553560742070617,4038.0952380952376,1818.3150183150183,1.0,5.950147413562048,168.06306306306305,-18.0,41.77099236641221,-0.5190839694656488,-0.896551724137931,0.07346326836581708,-0.46176911544227883,1282.7838827838827,97.03988388611906,31.49109310740605,
1770984547866.0972,4.423913043478261,-5.913043478260869,1.7934782608695652,2.4368641532016757,-9.314183123877918,-0.5481747456612807,4064.468864468864,1853.4798534798533,1.0,5.950147413562048,168.06306306306305,-18.030534351145036,41.48091603053435,0.04580152671755725,-0.9070464767616192,0.06896551724137931,-0.45577211394302847,1293.7728937728937,97.03703563778618,31.49109310740605,
1770984547885.6282,4.380434782608695,-5.956521739130435,1.7391304347826086,2.3961699581089166,-9.354877318970676,-0.5912627169359664,4063.003663003663,1863.003663003663,1.0,5.950147413562048,168.06306306306305,-18.229007633587784,40.916030534351144,0.2748091603053435,-0.9100449775112444,0.0704647676161919,-0.4587706146926537,1298.168498168498,97.03703563778618,31.49109310740605,
1770984547905.1592,4.369565217391305,-6.054347826086956,1.7717391304347825,2.386594853381209,-9.46259724715739,-0.5840813883901855,4042.490842490842,1839.5604395604394,1.0,5.950147413562048,168.06306306306305,-18.427480916030532,39.80152671755725,0.7786259541984732,-0.9070464767616192,0.08845577211394302,-0.4677661169415292,1288.6446886446886,97.03418739225243,31.49109310740605,
1770984547924.6904,4.391304347826087,-6.076086956521739,1.826086956521739,2.391382405745063,-9.517654099341712,-0.5433871932974267,4048.3516483516482,1841.7582417582416,1.0,5.945042181975981,168.20738514383854,-17.2824427480916,38.51908396946565,0.8396946564885496,-0.9040479760119939,0.08545727136431784,-0.45577211394302847,1287.9120879120878,97.03988388611906,31.49109310740605,
1770984547944.2214,4.369565217391305,-6.032608695652174,1.8043478260869565,2.381807301017355,-9.46259724715739,-0.5433871932974267,4038.0952380952376,1819.7802197802196,1.0,5.945042181975981,168.20738514383854,-16.30534351145038,37.14503816793893,0.8854961832061068,-0.9010494752623688,0.09745127436281859,-0.46326836581709147,1306.227106227106,97.03133914951788,31.49109310740605,
1770984547963.7527,4.358695652173913,-6.021739130434782,1.7934782608695652,2.379413524835428,-9.443447037701974,-0.5625374027528426,4064.468864468864,1854.212454212454,1.0,5.945042181975981,168.20738514383854,-16.33587786259542,35.11450381679389,0.916030534351145,-0.9100449775112444,0.05997001499250375,-0.46476761619190404,1329.6703296703297,97.03703563778618,31.49109310740605,
1770984547983.2837,4.413043478260869,-6.032608695652174,1.7934782608695652,2.4225014961101135,-9.448234590065828,-0.5721125074805505,4043.9560439560437,1831.5018315018315,1.0,5.939936950389912,168.35195530726256,-15.893129770992365,33.587786259541986,-0.015267175572519083,-0.9085457271364318,0.07496251874062969,-0.46176911544227883,1358.974358974359,97.03703563778618,31.49109310740605,
1770984548002.8147,4.423913043478261,-6.032608695652174,1.8369565217391304,2.4488330341113107,-9.467384799521245,-0.5577498503889886,4065.9340659340655,1863.7362637362637,1.0,5.939936950389912,168.35195530726256,-15.31297709923664,32.65648854961832,-0.030534351145038167,-0.9205397301349325,0.08095952023988005,-0.46476761619190404,1427.8388278388277,97.03988388611906,31.49109310740605,
1770984548022.346,4.369565217391305,-6.076086956521739,1.8152173913043477,2.4201077199281866,-9.498503889886296,-0.5457809694793536,4064.468864468864,1866.6666666666665,1.0,5.939936950389912,168.35195530726256,-14.732824427480915,31.69465648854962,-0.4580152671755725,-0.9265367316341829,0.06146926536731634,-0.4662668665667166,1571.4285714285713,97.03988388611906,31.49109310740605,
1770984548041.877,4.380434782608695,-6.076086956521739,1.7934782608695652,2.3722321962896467,-9.517654099341712,-0.5673249551166966,4064.468864468864,1867.3992673992673,1.0,5.939936950389912,168.35195530726256,-14.290076335877862,29.572519083969464,-1.114503816793893,-0.9115442278860569,0.09295352323838081,-0.4587706146926537,1773.6263736263736,97.03988388611906,31.49109310740605,
1770984548061.4082,4.369565217391305,-6.054347826086956,1.7934782608695652,2.39377618192699,-9.498503889886296,-0.5625374027528426,4064.468864468864,1868.131868131868,1.0,5.939936950389912,168.35195530726256,-13.938931297709923,28.0,-1.3435114503816794,-0.9100449775112444,0.06446776611694152,-0.45577211394302847,1975.091575091575,97.03418739225243,31.49109310740605,
1770984548080.9392,4.413043478260869,-6.065217391304348,1.7826086956521738,2.4272890484739675,-9.524835427887492,-0.5673249551166966,4064.468864468864,1867.3992673992673,1.0,5.934831718803845,168.49677419354836,-13.190839694656487,25.358778625954198,-2.0,-0.9220389805097451,0.08845577211394302,-0.472263868065967,2123.809523809524,97.03703563778618,31.49109310740605,
1770984548100.4702,4.467391304347826,-6.065217391304348,1.7608695652173914,2.4344703770197484,-9.484141232794734,-0.5888689407540395,4065.9340659340655,1873.9926739926739,1.0,5.934831718803845,168.49677419354836,-13.17557251908397,23.908396946564885,-2.5801526717557253,-0.9175412293853074,0.06746626686656672,-0.4587706146926537,2178.7545787545787,97.03703563778618,31.49109310740605,
1770984548120.0017,4.423913043478261,-6.065217391304348,1.75,2.4679832435667266,-9.505685218432076,-0.5888689407540395,4064.468864468864,1868.8644688644688,1.0,5.934831718803845,168.49677419354836,-12.931297709923664,23.541984732824428,-2.8244274809160306,-0.9190404797601199,0.06446776611694152,-0.46476761619190404,2131.135531135531,97.03988388611906,31.49109310740605,
1770984548139.5325,4.445652173913043,-6.0978260869565215,1.7608695652173914,2.4560143626570916,-9.536804308797127,-0.6056253740275284,4043.9560439560437,1835.8974358974358,1.0,5.929726487217777,168.64184244511407,-12.916030534351144,23.572519083969464,-3.16030534351145,-0.9160419790104948,0.05997001499250375,-0.46026986506746626,1999.2673992673992,97.03418739225243,31.49109310740605,
1770984548159.0637,4.391304347826087,-6.032608695652174,1.7934782608695652,2.4488330341113107,-9.517654099341712,-0.5936564931178935,4065.9340659340655,1864.4688644688642,1.0,5.929726487217777,168.64184244511407,-11.801526717557252,24.27480916030534,-3.3740458015267176,-0.9235382308845577,0.06746626686656672,-0.46476761619190404,1827.8388278388277,97.03703563778618,31.49109310740605,
1770984548178.5947,4.315217391304348,-5.945652173913043,1.8043478260869565,2.362657091561939,-9.388390185517654,-0.5673249551166966,4065.9340659340655,1872.5274725274724,1.0,5.929726487217777,168.64184244511407,-12.015267175572518,23.526717557251906,-3.2061068702290076,-0.9235382308845577,0.07946026986506746,-0.4707646176911544,1652.7472527472526,97.03418739225243,31.49109310740605,
1770984548198.1255,4.358695652173913,-5.945652173913043,1.7717391304347825,2.333931777378815,-9.350089766606821,-0.5840813883901855,4064.468864468864,1868.8644688644688,1.0,5.924621255631709,168.78716070659198,-12.625954198473282,22.16793893129771,-3.480916030534351,-0.9265367316341829,0.06146926536731634,-0.4677661169415292,1479.120879120879,97.03133914951788,31.49109310740605,
1770984548217.657,4.391304347826087,-6.0,1.7608695652173914,2.386594853381209,-9.3836026331538,-0.6247755834829444,4064.468864468864,1867.3992673992673,1.0,5.924621255631709,168.78716070659198,-12.427480916030534,21.31297709923664,-3.847328244274809,-0.9280359820089955,0.05247376311844078,-0.472263868065967,1328.2051282051282,97.03988388611906,31.49109310740605,
1770984548237.188,4.413043478260869,-5.967391304347826,1.7826086956521738,2.4225014961101135,-9.385996409335727,-0.5721125074805505,4063.003663003663,1866.6666666666665,1.0,5.919516024045641,168.9327296248383,-11.435114503816793,21.2824427480916,-3.5877862595419847,-0.9295352323838081,0.06146926536731634,-0.46176911544227883,1222.7106227106226,97.03703563778618,31.49109310740605,
1770984548256.7192,4.391304347826087,-5.989130434782608,1.7934782608695652,2.410532615200479,-9.405146618791143,-0.5792938360263316,4063.003663003663,1865.9340659340658,1.0,5.919516024045641,168.9327296248383,-11.190839694656487,21.46564885496183,-3.49618320610687,-0.9340329835082458,0.07196401799100449,-0.4767616191904048,1171.4285714285713,97.03418739225243,31.49109310740605,
1770984548276.2502,4.369565217391305,-6.021739130434782,1.7934782608695652,2.367444643925793,-9.438659485338121,-0.5601436265709157,4063.003663003663,1865.9340659340658,1.0,5.919516024045641,168.9327296248383,-11.206106870229007,20.732824427480914,-3.2519083969465647,-0.9295352323838081,0.06896551724137931,-0.4707646176911544,1175.0915750915751,97.03418739225243,31.49109310740605,
1770984548295.7812,4.358695652173913,-6.032608695652174,1.7826086956521738,2.360263315380012,-9.45541591861161,-0.5697187312986236,4041.0256410256407,1834.4322344322343,1.0,5.919516024045641,168.9327296248383,-10.458015267175572,19.19083969465649,-3.282442748091603,-0.9325337331334332,0.0704647676161919,-0.48425787106446777,1224.1758241758241,97.03703563778618,31.49109310740605,
1770984548315.3125,4.391304347826087,-6.065217391304348,1.75,2.367444643925793,-9.47935368043088,-0.5912627169359664,4064.468864468864,1857.8754578754576,1.0,5.919516024045641,168.9327296248383,-10.351145038167939,16.82442748091603,-3.236641221374046,-0.9355322338830584,0.06296851574212893,-0.472263868065967,1306.9597069597069,97.03418739225243,31.49109310740605,
1770984548334.8435,4.413043478260869,-6.0978260869565215,1.717391304347826,2.41771394374626,-9.51047277079593,-0.6271693596648713,4064.468864468864,1864.4688644688642,1.0,5.914410792459574,169.07854984894257,-9.618320610687023,15.14503816793893,-3.7709923664122136,-0.9355322338830584,0.06446776611694152,-0.46326836581709147,1403.6630036630036,97.03703563778618,31.49109310740605,
1770984548354.3745,4.456521739130435,-6.0978260869565215,1.7065217391304348,2.4536205864751643,-9.51047277079593,-0.6463195691202872,4063.003663003663,1865.9340659340658,1.0,5.914410792459574,169.07854984894257,-8.580152671755725,14.0,-4.198473282442748,-0.9310344827586207,0.06296851574212893,-0.4737631184407796,1487.179487179487,97.03418739225243,31.49109310740605,
1770984548373.9058,4.445652173913043,-6.065217391304348,1.75,2.4440454817474566,-9.498503889886296,-0.6511071214841412,4041.0256410256407,1834.4322344322343,1.0,5.914410792459574,169.07854984894257,-8.122137404580153,13.877862595419847,-4.763358778625954,-0.9355322338830584,0.05397301349325337,-0.4767616191904048,1539.194139194139,97.03418739225243,31.49109310740605,
1770984548393.4368,4.434782608695652,-6.065217391304348,1.7282608695652173,2.4584081388390184,-9.476959904248952,-0.6415320167564332,4064.468864468864,1857.8754578754576,1.0,5.909305560873506,169.22462203023755,-8.183206106870228,13.404580152671755,-5.145038167938931,-0.9355322338830584,0.05697151424287856,-0.4587706146926537,1561.1721611721612,97.03418739225243,31.49109310740605,
1770984548412.968,4.369565217391305,-6.0,1.7065217391304348,2.398563734290844,-9.457809694793536,-0.6295631358467983,4064.468864468864,1864.4688644688642,1.0,5.909305560873506,169.22462203023755,-8.076335877862595,13.49618320610687,-5.083969465648854,-0.9370314842578711,0.06296851574212893,-0.4677661169415292,1558.2417582417581,97.03418739225243,31.49109310740605,
1770984548432.499,4.326086956521739,-5.956521739130435,1.7717391304347825,2.3530819868342308,-9.381208856971872,-0.6032315978456014,4064.468864468864,1866.6666666666665,1.0,5.909305560873506,169.22462203023755,-7.526717557251908,12.946564885496183,-5.022900763358779,-0.9370314842578711,0.07496251874062969,-0.46476761619190404,1530.4029304029302,97.03418739225243,31.49109310740605,
1770984548452.03,4.315217391304348,-5.989130434782608,1.7282608695652173,2.326750448833034,-9.385996409335727,-0.6295631358467983,4042.490842490842,1840.2930402930401,1.0,5.909305560873506,169.22462203023755,-7.786259541984733,11.022900763358779,-5.007633587786259,-0.9340329835082458,0.06296851574212893,-0.4767616191904048,1487.179487179487,97.03703563778618,31.49109310740605,
1770984548471.5613,4.326086956521739,-6.032608695652174,1.7282608695652173,2.329144225014961,-9.443447037701974,-0.6606822262118491,4065.9340659340655,1865.9340659340658,1.0,5.904200329287438,169.37094682230867,-7.267175572519084,9.358778625954198,-4.65648854961832,-0.9385307346326837,0.06596701649175413,-0.47826086956521735,1435.164835164835,97.0427321372511,31.49109310740605,
1770984548491.0923,4.3478260869565215,-5.978260869565217,1.7282608695652173,2.362657091561939,-9.43147815679234,-0.6511071214841412,4064.468864468864,1860.07326007326,1.0,5.89909509770137,169.51752488100388,-6.213740458015267,7.419847328244274,-4.99236641221374,-0.9415292353823088,0.06146926536731634,-0.46926536731634183,1382.4175824175823,97.02849090958246,31.49109310740605,
1770984548510.6235,4.3478260869565215,-6.0,1.7608695652173914,2.3650508677438657,-9.400359066427288,-0.6152004787552364,4065.9340659340655,1871.7948717948716,1.0,5.89909509770137,169.51752488100388,-5.236641221374046,6.824427480916031,-4.885496183206107,-0.9370314842578711,0.050974512743628186,-0.48125937031484256,1333.3333333333333,97.03418739225243,31.49109310740605,
1770984548530.1543,4.369565217391305,-5.956521739130435,1.7391304347826086,2.379413524835428,-9.36684619988031,-0.6271693596648713,4065.9340659340655,1874.7252747252746,1.0,5.89909509770137,169.51752488100388,-5.083969465648854,5.709923664122138,-4.809160305343512,-0.9340329835082458,0.047976011994003,-0.4737631184407796,1302.5641025641025,97.03418739225243,31.49109310740605,
1770984548549.6855,4.369565217391305,-6.010869565217392,1.75,2.379413524835428,-9.402752842609216,-0.6271693596648713,4065.9340659340655,1875.4578754578754,1.0,5.893989866115303,169.66435686444345,-5.206106870229007,4.67175572519084,-5.129770992366412,-0.9415292353823088,0.06596701649175413,-0.48275862068965514,1285.7142857142856,97.03988388611906,31.49109310740605,
1770984548569.2168,4.326086956521739,-6.0978260869565215,1.75,2.357869539198085,-9.481747456612807,-0.6032315978456014,4064.468864468864,1869.5970695970695,1.0,5.893989866115303,169.66435686444345,-5.083969465648854,3.5267175572519083,-4.977099236641221,-0.9400299850074962,0.07496251874062969,-0.4707646176911544,1281.3186813186812,97.0427321372511,31.49109310740605,
1770984548588.7478,4.33695652173913,-6.163043478260869,1.7065217391304348,2.2980251346499103,-9.591861160981448,-0.6367444643925793,4065.9340659340655,1874.7252747252746,1.0,5.893989866115303,169.66435686444345,-4.152671755725191,0.9770992366412213,-5.358778625954198,-0.944527736131934,0.07196401799100449,-0.4767616191904048,1282.051282051282,97.03988388611906,31.49109310740605,
1770984548608.279,4.413043478260869,-6.163043478260869,1.7065217391304348,2.3842010771992816,-9.63016157989228,-0.6726511071214841,4042.490842490842,1842.4908424908424,1.0,5.8888846345292345,169.8114434330299,-2.6717557251908395,-1.618320610687023,-6.33587786259542,-0.9430284857571214,0.06146926536731634,-0.48275862068965514,1286.4468864468863,97.0427321372511,31.49109310740605,
1770984548627.81,4.391304347826087,-6.163043478260869,1.7391304347826086,2.4153201675643325,-9.599042489527228,-0.6606822262118491,4038.0952380952376,1820.5128205128203,1.0,5.8888846345292345,169.8114434330299,-1.3435114503816794,-3.9389312977099236,-7.541984732824427,-0.9385307346326837,0.05397301349325337,-0.48125937031484256,1305.4945054945053,97.03418739225243,31.49109310740605,
1770984548647.341,4.380434782608695,-6.228260869565217,1.8152173913043477,2.381807301017355,-9.627767803710352,-0.5625374027528426,4065.9340659340655,1860.8058608058607,1.0,5.8888846345292345,169.8114434330299,-1.1603053435114503,-5.526717557251908,-8.015267175572518,-0.9415292353823088,0.08545727136431784,-0.48275862068965514,1338.4615384615383,97.03133914951788,31.49109310740605,
1770984548666.8723,4.33695652173913,-6.25,1.7934782608695652,2.367444643925793,-9.687612208258528,-0.5409934171154996,4064.468864468864,1865.201465201465,1.0,5.8837794029431665,169.9587852494577,-0.4427480916030534,-8.122137404580153,-8.900763358778626,-0.9430284857571214,0.06146926536731634,-0.48125937031484256,1366.3003663003662,97.03703563778618,31.49109310740605,
1770984548686.4033,4.271739130434782,-6.195652173913043,1.7717391304347825,2.288450029922202,-9.697187312986236,-0.6056253740275284,4065.9340659340655,1873.260073260073,1.0,5.8837794029431665,169.9587852494577,0.9923664122137404,-10.48854961832061,-9.32824427480916,-0.9355322338830584,0.05547226386806597,-0.4737631184407796,1397.8021978021977,97.03624110707861,31.4860680899641,
1770984548705.9346,4.304347826086956,-6.065217391304348,1.826086956521739,2.2980251346499103,-9.529622980251347,-0.5553560742070617,4057.142857142857,1860.07326007326,1.0,5.8837794029431665,169.9587852494577,2.8702290076335877,-13.511450381679388,-10.50381679389313,-0.9475262368815592,0.06296851574212893,-0.4752623688155922,1421.9780219780218,97.03908933227436,31.4860680899641,
1770984548725.4656,4.293478260869565,-5.978260869565217,1.8695652173913042,2.2980251346499103,-9.419509275882705,-0.4955116696588869,4065.9340659340655,1871.7948717948716,1.0,5.878674171357098,170.10638297872342,4.229007633587786,-16.3206106870229,-10.977099236641221,-0.9325337331334332,0.06596701649175413,-0.47976011994003,1490.8424908424906,97.03908933227436,31.4860680899641,
1770984548744.9966,4.293478260869565,-6.0,1.8369565217391304,2.307600239377618,-9.400359066427288,-0.5074805505685218,4065.9340659340655,1874.7252747252746,1.0,5.878674171357098,170.10638297872342,4.412213740458015,-18.549618320610687,-11.007633587786259,-0.9385307346326837,0.06146926536731634,-0.47826086956521735,1630.7692307692307,97.03339288468196,31.4860680899641,
1770984548764.5278,4.326086956521739,-6.043478260869565,1.8695652173913042,2.360263315380012,-9.453022142429683,-0.4955116696588869,4042.490842490842,1843.2234432234432,1.0,5.8735689397710305,170.2542372881356,5.251908396946565,-19.572519083969464,-10.305343511450381,-0.9415292353823088,0.06296851574212893,-0.46926536731634183,1810.2564102564102,97.03908933227436,31.4860680899641,
1770984548784.0588,4.315217391304348,-6.043478260869565,1.858695652173913,2.324356672651107,-9.488928785158587,-0.5170556552962298,4067.399267399267,1861.5384615384614,1.0,5.8735689397710305,170.2542372881356,5.633587786259541,-20.030534351145036,-9.694656488549619,-0.9475262368815592,0.07946026986506746,-0.47826086956521735,1982.4175824175823,97.03908933227436,31.4860680899641,
1770984548803.5898,4.326086956521739,-5.978260869565217,1.8804347826086956,2.336325553560742,-9.419509275882705,-0.46439257929383604,4065.9340659340655,1871.7948717948716,1.0,5.8735689397710305,170.2542372881356,6.977099236641221,-20.442748091603054,-8.16793893129771,-0.9415292353823088,0.05847076461769115,-0.4662668665667166,2103.296703296703,97.03339288468196,31.4860680899641,
1770984548823.121,4.315217391304348,-6.0,1.8478260869565217,2.312387791741472,-9.397965290245361,-0.48114901256732495,4065.9340659340655,1874.7252747252746,1.0,5.8684637081849615,170.40234884732496,7.32824427480916,-22.061068702290076,-7.49618320610687,-0.9430284857571214,0.05697151424287856,-0.4752623688155922,2127.4725274725274,97.03908933227436,31.4860680899641,
1770984548842.652,4.380434782608695,-6.043478260869565,1.8369565217391304,2.367444643925793,-9.47935368043088,-0.4955116696588869,4065.9340659340655,1875.4578754578754,1.0,5.8684637081849615,170.40234884732496,7.709923664122137,-23.19083969465649,-6.381679389312977,-0.9355322338830584,0.06446776611694152,-0.48125937031484256,2045.4212454212452,97.03624110707861,31.4860680899641,
1770984548862.183,4.445652173913043,-6.08695652173913,1.8152173913043477,2.4655894673847993,-9.524835427887492,-0.5290245362058648,4064.468864468864,1869.5970695970695,1.0,5.8633584765988935,170.55071832825428,8.442748091603054,-25.099236641221374,-5.526717557251908,-0.9355322338830584,0.05847076461769115,-0.46926536731634183,1893.7728937728937,97.03908933227436,31.4860680899641,
1770984548881.7144,4.467391304347826,-6.010869565217392,1.8478260869565217,2.4871334530221425,-9.436265709156194,-0.5266307600239377,4064.468864468864,1868.131868131868,1.0,5.8633584765988935,170.55071832825428,10.091603053435113,-25.740458015267176,-4.870229007633587,-0.9415292353823088,0.06296851574212893,-0.4707646176911544,1711.3553113553112,97.03339288468196,31.4860680899641,
1770984548901.2454,4.5,-5.967391304347826,1.8478260869565217,2.527827648114901,-9.405146618791143,-0.5122681029323758,4064.468864468864,1867.3992673992673,1.0,5.8633584765988935,170.55071832825428,10.549618320610687,-26.671755725190838,-4.0,-0.9355322338830584,0.06896551724137931,-0.46926536731634183,1538.4615384615383,97.03054466508442,31.4860680899641,
1770984548920.7766,4.543478260869565,-6.021739130434782,1.8478260869565217,2.551765409934171,-9.443447037701974,-0.5170556552962298,4041.0256410256407,1833.6996336996335,1.0,5.858253245012826,170.69934640522877,10.854961832061068,-27.93893129770992,-3.32824427480916,-0.9265367316341829,0.07796101949025487,-0.47826086956521735,1393.4065934065934,97.03624110707861,31.4860680899641,
1770984548940.3076,4.532608695652174,-6.08695652173913,1.826086956521739,2.558946738479952,-9.498503889886296,-0.5194494314781568,4064.468864468864,1857.8754578754576,1.0,5.858253245012826,170.69934640522877,10.473282442748092,-29.862595419847327,-3.1755725190839694,-0.9325337331334332,0.05397301349325337,-0.4707646176911544,1275.4578754578754,97.03339288468196,31.4860680899641,
1770984548959.8389,4.554347826086956,-5.967391304347826,1.8043478260869565,2.558946738479952,-9.4721723518851,-0.5481747456612807,4064.468864468864,1863.7362637362637,1.0,5.8531480134267575,170.84823375490626,12.198473282442748,-31.755725190839694,-2.854961832061069,-0.9310344827586207,0.06146926536731634,-0.472263868065967,1193.4065934065934,97.03339288468196,31.4860680899641,
1770984548979.37,4.576086956521739,-5.891304347826087,1.8043478260869565,2.582884500299222,-9.340514661879114,-0.5457809694793536,4063.003663003663,1865.201465201465,1.0,5.8531480134267575,170.84823375490626,12.854961832061068,-33.80152671755725,-2.198473282442748,-0.9370314842578711,0.06746626686656672,-0.4662668665667166,1160.4395604395604,97.03339288468196,31.4860680899641,
1770984548998.901,4.641304347826087,-5.8478260869565215,1.7608695652173914,2.6307600239377615,-9.292639138240574,-0.5840813883901855,4064.468864468864,1866.6666666666665,1.0,5.84804278184069,170.99738105630732,13.694656488549617,-35.770992366412216,-2.1221374045801524,-0.9400299850074962,0.0704647676161919,-0.4677661169415292,1183.150183150183,97.03054466508442,31.4860680899641,
1770984549018.432,4.663043478260869,-5.83695652173913,1.8043478260869565,2.6929982046678633,-9.247157390783961,-0.5769000598444045,4064.468864468864,1866.6666666666665,1.0,5.84804278184069,170.99738105630732,14.076335877862595,-36.97709923664122,-1.5114503816793892,-0.9280359820089955,0.08095952023988005,-0.4752623688155922,1236.6300366300366,97.04193756026925,31.4860680899641,
1770984549037.9631,4.673913043478261,-5.83695652173913,1.8043478260869565,2.7049670855774983,-9.2327947336924,-0.5481747456612807,4036.6300366300366,1832.234432234432,1.0,5.842937550254622,171.1467889908257,13.66412213740458,-38.030534351145036,-0.8549618320610687,-0.9295352323838081,0.05847076461769115,-0.46176911544227883,1319.4139194139193,97.03624110707861,31.4860680899641,
1770984549057.4944,4.673913043478261,-5.826086956521739,1.7391304347826086,2.731298623578695,-9.2327947336924,-0.6104129263913823,4063.003663003663,1857.142857142857,1.0,5.842937550254622,171.1467889908257,13.221374045801527,-39.160305343511446,-0.16793893129770993,-0.9250374812593702,0.07946026986506746,-0.46926536731634183,1403.6630036630036,97.03339288468196,31.4860680899641,
1770984549077.0254,4.782608695652174,-5.8478260869565215,1.717391304347826,2.771992818671454,-9.237582286056254,-0.6511071214841412,4041.0256410256407,1831.5018315018315,1.0,5.842937550254622,171.1467889908257,13.099236641221374,-39.89312977099237,0.21374045801526717,-0.9175412293853074,0.05547226386806597,-0.4677661169415292,1456.4102564102564,97.03908933227436,31.4860680899641,
1770984549096.5564,4.793478260869565,-5.880434782608695,1.684782608695652,2.834230999401556,-9.278276481149012,-0.6606822262118491,4064.468864468864,1857.142857142857,1.0,5.842937550254622,171.1467889908257,12.13740458015267,-39.64885496183206,0.6564885496183206,-0.9160419790104948,0.06446776611694152,-0.46026986506746626,1473.9926739926739,97.03339288468196,31.4860680899641,
1770984549116.0876,4.804347826086956,-5.9021739130434785,1.6956521739130435,2.83901855176541,-9.309395571514063,-0.6535008976660682,4064.468864468864,1864.4688644688642,1.0,5.837832318668554,171.29645824223877,12.106870229007633,-39.05343511450381,1.5725190839694656,-0.9310344827586207,0.06446776611694152,-0.45577211394302847,1470.3296703296703,97.03339288468196,31.4860680899641,
1770984549135.619,4.83695652173913,-5.923913043478261,1.7065217391304348,2.8916816277678037,-9.314183123877918,-0.6606822262118491,4063.003663003663,1865.201465201465,1.0,5.837832318668554,171.29645824223877,11.603053435114504,-38.229007633587784,1.8778625954198473,-0.9295352323838081,0.06746626686656672,-0.4707646176911544,1451.2820512820513,97.03339288468196,31.4860680899641,
1770984549155.15,4.815217391304348,-5.891304347826087,1.717391304347826,2.8797127468581687,-9.302214242968283,-0.6463195691202872,4064.468864468864,1867.3992673992673,1.0,5.832727087082487,171.44638949671773,10.99236641221374,-37.221374045801525,1.9541984732824427,-0.9145427286356821,0.06746626686656672,-0.46476761619190404,1430.7692307692307,97.03054466508442,31.4860680899641,
1770984549174.681,4.815217391304348,-5.891304347826087,1.7065217391304348,2.865350089766607,-9.307001795332136,-0.698982645122681,4060.07326007326,1865.201465201465,1.0,5.832727087082487,171.44638949671773,9.877862595419847,-36.80916030534351,2.396946564885496,-0.9130434782608695,0.06596701649175413,-0.46176911544227883,1405.128205128205,97.03339288468196,31.4860680899641,
1770984549194.212,4.8478260869565215,-5.934782608695652,1.7065217391304348,2.9108318372232196,-9.326152004787552,-0.6630760023937762,4038.0952380952376,1826.3736263736262,1.0,5.827621855496419,171.59658344283838,9.145038167938932,-36.274809160305345,2.763358778625954,-0.9070464767616192,0.05997001499250375,-0.4512743628185907,1383.8827838827838,97.03339288468196,31.4860680899641,
1770984549213.7432,4.815217391304348,-5.9021739130434785,1.7934782608695652,2.8916816277678037,-9.321364452423698,-0.5936564931178935,4065.9340659340655,1862.2710622710622,1.0,5.827621855496419,171.59658344283838,8.473282442748092,-35.93893129770992,2.9618320610687023,-0.9100449775112444,0.06446776611694152,-0.45577211394302847,1350.18315018315,97.03624110707861,31.4860680899641,
1770984549233.2742,4.869565217391305,-5.880434782608695,1.7717391304347825,2.9084380610412928,-9.309395571514063,-0.5840813883901855,4042.490842490842,1838.8278388278386,1.0,5.822516623910351,171.74704077159143,8.51908396946565,-36.38167938931298,3.145038167938931,-0.9100449775112444,0.0704647676161919,-0.45727136431784104,1319.4139194139193,97.02769644828602,31.4860680899641,
1770984549252.8052,4.923913043478261,-5.891304347826087,1.8478260869565217,2.9491322561340514,-9.314183123877918,-0.5170556552962298,4067.399267399267,1860.8058608058607,1.0,5.822516623910351,171.74704077159143,7.6183206106870225,-36.091603053435115,3.32824427480916,-0.9040479760119939,0.06596701649175413,-0.45577211394302847,1305.4945054945053,97.02769644828602,31.4860680899641,
1770984549272.3364,4.9021739130434785,-5.869565217391304,1.934782608695652,2.9347695990424896,-9.266307600239378,-0.3877917414721723,4065.9340659340655,1871.0622710622708,1.0,5.822516623910351,171.74704077159143,7.1603053435114505,-35.51145038167939,3.4045801526717554,-0.9085457271364318,0.07346326836581708,-0.4587706146926537,1299.6336996336995,97.03054466508442,31.4860680899641,
1770984549291.8674,4.858695652173913,-5.858695652173913,1.9456521739130435,2.939557151406343,-9.271095152603232,-0.4045481747456613,4064.468864468864,1868.131868131868,1.0,5.817411392324284,171.89776217639317,7.114503816793893,-35.404580152671755,3.465648854961832,-0.9055472263868065,0.0914542728635682,-0.4512743628185907,1305.4945054945053,97.03339288468196,31.4860680899641,
1770984549311.3987,4.913043478260869,-5.858695652173913,1.934782608695652,2.9658886894075405,-9.259126271693596,-0.4069419509275883,4038.0952380952376,1827.106227106227,1.0,5.817411392324284,171.89776217639317,6.931297709923664,-35.75572519083969,3.2671755725190836,-0.896551724137931,0.08695652173913043,-0.46176911544227883,1320.14652014652,97.03054466508442,31.4860680899641,
1770984549330.9297,4.978260869565217,-5.869565217391304,2.0,3.030520646319569,-9.304608019150209,-0.34470377019748655,4064.468864468864,1856.4102564102564,1.0,5.817411392324284,171.89776217639317,6.931297709923664,-35.64885496183206,2.5038167938931295,-0.889055472263868,0.08995502248875561,-0.4512743628185907,1339.194139194139,97.02769644828602,31.4860680899641,
1770984549350.4607,4.923913043478261,-5.913043478260869,2.119565217391304,3.032914422501496,-9.32854578096948,-0.2800718132854578,4036.6300366300366,1829.3040293040292,1.0,5.817411392324284,171.89776217639317,6.6106870229007635,-35.06870229007633,2.015267175572519,-0.8905547226386806,0.08995502248875561,-0.4467766116941529,1351.6483516483515,97.03624110707861,31.4860680899641,
1770984549369.992,4.913043478260869,-5.989130434782608,2.130434782608696,2.9658886894075405,-9.36684619988031,-0.20347097546379414,4064.468864468864,1856.4102564102564,1.0,5.812306160738216,172.0487483530962,6.671755725190839,-34.534351145038165,1.648854961832061,-0.881559220389805,0.07796101949025487,-0.45277361319340326,1353.113553113553,97.03624110707861,31.4860680899641,
1770984549389.523,4.9021739130434785,-6.032608695652174,2.0652173913043477,2.982645122681029,-9.433871932974267,-0.24895272292040693,4041.0256410256407,1831.5018315018315,1.0,5.807200929152148,172.20000000000002,6.534351145038167,-34.99236641221374,1.3129770992366412,-0.8830584707646176,0.07196401799100449,-0.4497751124437781,1342.8571428571427,97.03054466508442,31.4860680899641,
1770984549409.0542,4.913043478260869,-6.043478260869565,2.119565217391304,2.982645122681029,-9.486535008976661,-0.24416517055655296,4038.0952380952376,1816.8498168498168,1.0,5.807200929152148,172.20000000000002,6.99236641221374,-35.25190839694656,0.24427480916030533,-0.881559220389805,0.08245877061469264,-0.4497751124437781,1337.7289377289376,97.03624110707861,31.4860680899641,
1770984549428.5852,4.934782608695652,-5.978260869565217,2.1630434782608696,3.01376421304608,-9.433871932974267,-0.20347097546379414,4065.9340659340655,1859.3406593406592,1.0,5.807200929152148,172.20000000000002,8.076335877862595,-36.0763358778626,-0.7175572519083969,-0.8845577211394302,0.09295352323838081,-0.4587706146926537,1374.3589743589744,97.03908933227436,31.4860680899641,
1770984549448.1162,4.923913043478261,-5.934782608695652,2.1630434782608696,3.006582884500299,-9.36684619988031,-0.17713943746259725,4063.003663003663,1864.4688644688642,1.0,5.802095697566081,172.35151781786186,8.854961832061068,-35.89312977099237,-1.5267175572519083,-0.889055472263868,0.0914542728635682,-0.46326836581709147,1490.8424908424906,97.03339288468196,31.4860680899641,
1770984549467.6477,4.880434782608695,-5.9021739130434785,2.130434782608696,2.963494913225613,-9.340514661879114,-0.1867145421903052,4038.0952380952376,1826.3736263736262,1.0,5.802095697566081,172.35151781786186,8.50381679389313,-35.51145038167939,-2.229007633587786,-0.8875562218890555,0.08695652173913043,-0.4482758620689655,1681.3186813186812,97.03054466508442,31.4860680899641,
1770984549487.1785,4.83695652173913,-5.9021739130434785,2.141304347826087,2.9108318372232196,-9.309395571514063,-0.1699581089168163,4061.5384615384614,1849.084249084249,1.0,5.802095697566081,172.35151781786186,8.458015267175572,-34.62595419847328,-2.8396946564885495,-0.8695652173913043,0.08245877061469264,-0.4497751124437781,1876.1904761904761,97.02769644828602,31.4860680899641,
1770984549506.7097,4.804347826086956,-5.934782608695652,2.0978260869565215,2.877318970676242,-9.326152004787552,-0.21783363255535607,4036.6300366300366,1833.6996336996335,1.0,5.796990465980013,172.50330250990754,8.442748091603054,-34.67175572519084,-2.748091603053435,-0.8770614692653673,0.07946026986506746,-0.45577211394302847,2027.106227106227,97.03624110707861,31.4860680899641,
1770984549526.2407,4.815217391304348,-5.869565217391304,2.0869565217391304,2.8557749850388987,-9.330939557151407,-0.26810293237582283,4064.468864468864,1857.8754578754576,1.0,5.796990465980013,172.50330250990754,8.99236641221374,-34.030534351145036,-3.1755725190839694,-0.8800599700149925,0.07196401799100449,-0.4512743628185907,2087.179487179487,97.03908933227436,31.4860680899641,
1770984549545.7715,4.826086956521739,-5.8478260869565215,2.0652173913043477,2.8509874326750446,-9.247157390783961,-0.29682824655894674,4041.0256410256407,1831.5018315018315,1.0,5.796990465980013,172.50330250990754,8.625954198473282,-33.31297709923664,-2.8396946564885495,-0.8770614692653673,0.07496251874062969,-0.44377811094452774,2041.7582417582416,97.03054466508442,31.4860680899641,
1770984549565.303,4.804347826086956,-5.9021739130434785,2.0217391304347827,2.836624775583483,-9.278276481149012,-0.2896469180131658,4063.003663003663,1856.4102564102564,1.0,5.791885234393945,172.65535478184225,8.122137404580153,-32.80916030534351,-2.3664122137404577,-0.8665667166416792,0.0944527736131934,-0.4452773613193403,1920.14652014652,97.03339288468196,31.4860680899641,
1770984549584.834,4.782608695652174,-5.913043478260869,2.0543478260869565,2.853381208856972,-9.330939557151407,-0.3087971274685817,4064.468864468864,1863.7362637362637,1.0,5.791885234393945,172.65535478184225,7.587786259541985,-31.251908396946565,-1.0687022900763359,-0.8725637181409295,0.06896551724137931,-0.43778110944527737,1750.9157509157508,97.03908933227436,31.4860680899641,
1770984549604.3652,4.760869565217392,-5.858695652173913,2.0543478260869565,2.8318372232196287,-9.278276481149012,-0.2896469180131658,4064.468864468864,1866.6666666666665,1.0,5.791885234393945,172.65535478184225,7.099236641221374,-30.213740458015266,-0.5954198473282443,-0.8695652173913043,0.08545727136431784,-0.44377811094452774,1558.2417582417581,97.02769644828602,31.4860680899641,
1770984549623.8962,4.771739130434782,-5.826086956521739,2.0217391304347827,2.827049670855775,-9.249551166965889,-0.3087971274685817,4064.468864468864,1866.6666666666665,1.0,5.786780002807876,172.8076753418615,6.061068702290076,-29.190839694656486,0.7175572519083969,-0.8635682158920539,0.06896551724137931,-0.4422788605697151,1378.7545787545787,97.03908933227436,31.4860680899641,
1770984549643.4272,4.8478260869565215,-5.858695652173913,1.9782608695652173,2.9036505086774387,-9.254338719329743,-0.36624775583482944,4061.5384615384614,1860.07326007326,1.0,5.786780002807876,172.8076753418615,5.2824427480916025,-27.541984732824428,1.0687022900763359,-0.8695652173913043,0.07346326836581708,-0.45577211394302847,1227.106227106227,97.03339288468196,31.4860680899641,
1770984549662.9585,4.880434782608695,-5.815217391304348,2.010869565217391,2.9491322561340514,-9.230400957510472,-0.3231597845601436,4063.003663003663,1864.4688644688642,1.0,5.781674771221809,172.96026490066225,5.0534351145038165,-25.49618320610687,2.1526717557251906,-0.8590704647676162,0.07196401799100449,-0.43178410794602695,1124.5421245421244,97.03339288468196,31.4860680899641,
1770984549682.4895,4.869565217391305,-5.793478260869565,2.010869565217391,2.9467384799521246,-9.182525433871932,-0.3231597845601436,4064.468864468864,1866.6666666666665,1.0,5.781674771221809,172.96026490066225,4.076335877862595,-23.63358778625954,2.748091603053435,-0.8620689655172413,0.08095952023988005,-0.44377811094452774,1085.7142857142856,97.03577641500078,31.501143143163063,
1770984549702.0205,4.913043478260869,-5.804347826086956,1.967391304347826,2.9730700179533214,-9.192100538599641,-0.3686415320167564,4041.0256410256407,1833.6996336996335,1.0,5.781674771221809,172.96026490066225,3.0229007633587783,-21.51145038167939,3.8625954198473282,-0.8590704647676162,0.07946026986506746,-0.4542728635682159,1094.5054945054944,97.03862470680883,31.501143143163063,
1770984549721.5518,4.956521739130435,-5.782608695652174,2.010869565217391,3.001795332136445,-9.20885697187313,-0.34709754637941354,4036.6300366300366,1823.4432234432234,1.0,5.776569539635741,173.11312417145385,2.351145038167939,-19.64885496183206,4.244274809160305,-0.8515742128935532,0.0704647676161919,-0.44377811094452774,1139.9267399267399,97.03577641500078,31.501143143163063,
1770984549741.0828,4.923913043478261,-5.782608695652174,1.967391304347826,3.0041891083183723,-9.192100538599641,-0.3686415320167564,4064.468864468864,1854.9450549450548,1.0,5.776569539635741,173.11312417145385,1.7557251908396947,-18.076335877862594,4.961832061068702,-0.8530734632683658,0.09295352323838081,-0.4497751124437781,1213.9194139194137,97.04147300141611,31.501143143163063,
1770984549760.614,4.967391304347826,-5.771739130434782,2.0,3.052064631956912,-9.16816277678037,-0.3542788749251945,4063.003663003663,1863.003663003663,1.0,5.771464308049673,173.26625386996906,0.38167938931297707,-16.748091603053435,4.595419847328244,-0.8575712143928036,0.05997001499250375,-0.4587706146926537,1296.7032967032967,97.03862470680883,31.501143143163063,
1770984549780.145,4.989130434782608,-5.804347826086956,2.0,3.06163973668462,-9.187312986235787,-0.36385397965290245,4064.468864468864,1866.6666666666665,1.0,5.771464308049673,173.26625386996906,-0.8091603053435115,-14.366412213740457,4.396946564885496,-0.856071964017991,0.0704647676161919,-0.4452773613193403,1380.952380952381,97.04147300141611,31.501143143163063,
1770984549799.676,5.021739130434782,-5.804347826086956,2.010869565217391,3.076002393776182,-9.237582286056254,-0.31597845601436264,4061.5384615384614,1860.07326007326,1.0,5.766359076463605,173.41965471447546,-1.5877862595419847,-12.732824427480915,4.381679389312977,-0.8545727136431783,0.07496251874062969,-0.4452773613193403,1445.4212454212454,97.03577641500078,31.501143143163063,
1770984549819.2073,4.989130434782608,-5.804347826086956,2.0543478260869565,3.06163973668462,-9.237582286056254,-0.3231597845601436,4036.6300366300366,1830.03663003663,1.0,5.766359076463605,173.41965471447546,-2.2900763358778624,-11.419847328244275,3.4351145038167936,-0.856071964017991,0.07796101949025487,-0.44377811094452774,1475.4578754578754,97.03007983978246,31.501143143163063,
1770984549838.7383,5.010869565217392,-5.858695652173913,2.0869565217391304,3.0831837223219627,-9.22561340514662,-0.2704967085577498,4064.468864468864,1857.142857142857,1.0,5.766359076463605,173.41965471447546,-3.312977099236641,-10.65648854961832,2.778625954198473,-0.8455772113943029,0.08845577211394302,-0.4587706146926537,1473.9926739926739,97.03862470680883,31.501143143163063,
1770984549858.2695,4.978260869565217,-5.869565217391304,2.0978260869565215,3.040095751047277,-9.292639138240574,-0.22740873728306402,4041.0256410256407,1831.5018315018315,1.0,5.761253844877538,173.57332742578646,-3.66412213740458,-10.213740458015266,1.8931297709923662,-0.8500749625187406,0.06746626686656672,-0.4407796101949025,1438.095238095238,97.032928125992,31.501143143163063,
1770984549877.8003,4.989130434782608,-5.934782608695652,2.119565217391304,3.054458408138839,-9.330939557151407,-0.22501496110113703,4065.9340659340655,1863.7362637362637,1.0,5.761253844877538,173.57332742578646,-3.8625954198473282,-9.572519083969466,1.7862595419847327,-0.8425787106446776,0.06446776611694152,-0.44377811094452774,1389.7435897435896,97.04147300141611,31.501143143163063,
1770984549897.3315,5.010869565217392,-5.956521739130435,2.1739130434782608,3.087971274685817,-9.354877318970676,-0.19868342309994014,4065.9340659340655,1872.5274725274724,1.0,5.761253844877538,173.57332742578646,-3.8167938931297707,-8.717557251908397,0.6717557251908397,-0.8440779610194902,0.06296851574212893,-0.44377811094452774,1345.054945054945,97.03577641500078,31.501143143163063,
1770984549916.8628,4.956521739130435,-5.9021739130434785,2.2065217391304346,3.056852184320766,-9.33572710951526,-0.11250748055056851,4065.9340659340655,1874.7252747252746,1.0,5.75614861329147,173.72727272727275,-3.7709923664122136,-7.66412213740458,-0.030534351145038167,-0.8395802098950524,0.07646176911544228,-0.45277361319340326,1324.5421245421244,97.04432129882262,31.501143143163063,
1770984549936.3938,4.956521739130435,-5.9021739130434785,2.152173913043478,3.032914422501496,-9.316576900059845,-0.1603830041891083,4065.9340659340655,1875.4578754578754,1.0,5.75614861329147,173.72727272727275,-4.137404580152672,-6.8396946564885495,-0.5343511450381679,-0.848575712143928,0.08245877061469264,-0.4407796101949025,1315.018315018315,97.03577641500078,31.501143143163063,
1770984549955.925,4.923913043478261,-5.923913043478261,2.217391304347826,3.01376421304608,-9.340514661879114,-0.12447636146020347,4063.003663003663,1868.8644688644688,1.0,5.75614861329147,173.72727272727275,-4.427480916030534,-5.404580152671755,-1.4809160305343512,-0.8425787106446776,0.07796101949025487,-0.4497751124437781,1307.6923076923076,97.03862470680883,31.501143143163063,
1770984549975.456,4.869565217391305,-5.934782608695652,2.25,2.9563135846798323,-9.33572710951526,-0.0718132854578097,4064.468864468864,1868.131868131868,1.0,5.75614861329147,173.72727272727275,-4.763358778625954,-4.3206106870229,-1.4045801526717556,-0.8365817091454273,0.08095952023988005,-0.4422788605697151,1303.2967032967033,97.03577641500078,31.501143143163063,
1770984549994.987,4.891304347826087,-5.945652173913043,2.1630434782608696,2.9467384799521246,-9.350089766606821,-0.15080789946140036,4065.9340659340655,1873.9926739926739,1.0,5.751043381705402,173.88149134487352,-4.748091603053435,-3.3435114503816794,-1.8931297709923662,-0.8395802098950524,0.06596701649175413,-0.43928035982008995,1311.3553113553112,97.04147300141611,31.501143143163063,
1770984550014.5183,4.8478260869565215,-5.891304347826087,2.152173913043478,2.9228007181328546,-9.333333333333334,-0.20107719928186715,4042.490842490842,1842.4908424908424,1.0,5.751043381705402,173.88149134487352,-4.564885496183206,-1.129770992366412,-1.0076335877862594,-0.8320839580209894,0.0704647676161919,-0.43778110944527737,1311.3553113553112,97.032928125992,31.501143143163063,
1770984550034.0493,4.804347826086956,-5.9021739130434785,2.1956521739130435,2.858168761220826,-9.295032914422501,-0.15320167564332735,4038.0952380952376,1819.7802197802196,1.0,5.7459381501193345,174.03598400710797,-4.9465648854961835,1.297709923664122,-0.32061068702290074,-0.8395802098950524,0.08395802098950525,-0.4452773613193403,1321.6117216117216,97.03577641500078,31.501143143163063,
1770984550053.5806,4.793478260869565,-5.945652173913043,2.2391304347826084,2.858168761220826,-9.340514661879114,-0.10293237582286056,4064.468864468864,1853.4798534798533,1.0,5.7459381501193345,174.03598400710797,-6.030534351145038,3.282442748091603,0.2748091603053435,-0.8380809595202399,0.07796101949025487,-0.4542728635682159,1322.3443223443223,97.03862470680883,31.501143143163063,
1770984550073.1116,4.728260869565217,-6.054347826086956,2.152173913043478,2.793536804308797,-9.443447037701974,-0.1436265709156194,4063.003663003663,1862.2710622710622,1.0,5.7459381501193345,174.03598400710797,-6.3969465648854955,4.778625954198473,0.7480916030534351,-0.8470764617691154,0.07496251874062969,-0.45277361319340326,1326.007326007326,97.032928125992,31.501143143163063,
1770984550092.6426,4.739130434782608,-6.065217391304348,2.141304347826087,2.760023937761819,-9.488928785158587,-0.2130460801915021,4038.0952380952376,1825.6410256410254,1.0,5.7459381501193345,174.03598400710797,-6.152671755725191,5.190839694656488,0.5038167938931297,-0.8530734632683658,0.07196401799100449,-0.43478260869565216,1330.4029304029302,97.032928125992,31.501143143163063,
1770984550112.1738,4.793478260869565,-6.043478260869565,2.141304347826087,2.8318372232196287,-9.476959904248952,-0.1891083183722322,4064.468864468864,1855.6776556776556,1.0,5.740832918533267,174.1907514450867,-4.854961832061068,5.66412213740458,-0.0916030534351145,-0.8395802098950524,0.08395802098950525,-0.4467766116941529,1347.985347985348,97.03007983978246,31.501143143163063,
1770984550131.7048,4.782608695652174,-6.0,2.1739130434782608,2.817474566128067,-9.419509275882705,-0.13165769000598443,4036.6300366300366,1828.5714285714284,1.0,5.740832918533267,174.1907514450867,-4.534351145038168,6.473282442748092,-1.2213740458015268,-0.8425787106446776,0.08095952023988005,-0.4512743628185907,1427.106227106227,97.03007983978246,31.501143143163063,
1770984550151.2358,4.717391304347826,-5.989130434782608,2.1956521739130435,2.760023937761819,-9.419509275882705,-0.12687013764213045,4064.468864468864,1856.4102564102564,1.0,5.740832918533267,174.1907514450867,-4.091603053435114,6.442748091603053,-2.717557251908397,-0.856071964017991,0.0944527736131934,-0.4497751124437781,1574.3589743589744,97.032928125992,31.501143143163063,
1770984550170.767,4.6521739130434785,-5.967391304347826,2.1630434782608696,2.7025733093955715,-9.402752842609216,-0.1603830041891083,4042.490842490842,1838.095238095238,1.0,5.740832918533267,174.1907514450867,-3.7557251908396947,5.465648854961832,-3.9847328244274807,-0.848575712143928,0.08245877061469264,-0.45277361319340326,1758.2417582417581,97.032928125992,31.501143143163063,
1770984550190.298,4.630434782608695,-5.945652173913043,2.141304347826087,2.6666666666666665,-9.3836026331538,-0.19150209455415917,4038.0952380952376,1819.047619047619,1.0,5.735727686947199,174.34579439252337,-3.4045801526717554,3.709923664122137,-5.6183206106870225,-0.8455772113943029,0.07346326836581708,-0.4407796101949025,1924.5421245421244,97.03577641500078,31.501143143163063,
1770984550209.829,4.619565217391305,-5.923913043478261,2.130434782608696,2.645122681029324,-9.357271095152603,-0.1891083183722322,4064.468864468864,1853.4798534798533,1.0,5.735727686947199,174.34579439252337,-2.6259541984732824,2.351145038167939,-6.763358778625954,-0.8425787106446776,0.0704647676161919,-0.43928035982008995,2014.6520146520145,97.03577641500078,31.501143143163063,
1770984550229.3604,4.58695652173913,-5.956521739130435,2.0760869565217392,2.6523040095751047,-9.338120885697187,-0.22022740873728305,4064.468864468864,1863.003663003663,1.0,5.730622455361131,174.5011135857461,-2.854961832061069,1.3893129770992365,-6.99236641221374,-0.8470764617691154,0.07946026986506746,-0.4407796101949025,2003.6630036630036,97.03577641500078,31.501143143163063,
1770984550248.8914,4.58695652173913,-5.956521739130435,2.032608695652174,2.6116098144823456,-9.374027528426092,-0.26331538001196886,4064.468864468864,1865.9340659340658,1.0,5.730622455361131,174.5011135857461,-2.4427480916030535,1.083969465648855,-7.343511450381679,-0.8515742128935532,0.07646176911544228,-0.43778110944527737,1912.087912087912,97.03577641500078,31.501143143163063,
1770984550268.4226,4.608695652173913,-5.891304347826087,2.032608695652174,2.6546977857570315,-9.340514661879114,-0.3016157989228007,4061.5384615384614,1859.3406593406592,1.0,5.730622455361131,174.5011135857461,-2.8244274809160306,1.2519083969465647,-6.458015267175572,-0.8455772113943029,0.06296851574212893,-0.4407796101949025,1771.4285714285713,97.03577641500078,31.501143143163063,
1770984550287.9536,4.565217391304348,-5.739130434782608,2.0652173913043477,2.625972471573908,-9.206463195691203,-0.24655894673847994,4063.003663003663,1864.4688644688642,1.0,5.725517223775063,174.65670976370933,-2.5343511450381677,2.3053435114503817,-5.923664122137405,-0.8425787106446776,0.06296851574212893,-0.4407796101949025,1591.2087912087911,97.03862470680883,31.501143143163063,
1770984550307.4849,4.5978260869565215,-5.695652173913043,2.043478260869565,2.6116098144823456,-9.081986834231,-0.2704967085577498,4063.003663003663,1865.201465201465,1.0,5.725517223775063,174.65670976370933,-4.824427480916031,3.3740458015267176,-5.374045801526718,-0.8455772113943029,0.06296851574212893,-0.43478260869565216,1405.8608058608058,97.032928125992,31.501143143163063,
1770984550327.016,4.5978260869565215,-5.880434782608695,1.9782608695652173,2.6307600239377615,-9.230400957510472,-0.3399162178336326,4039.560439560439,1832.9670329670328,1.0,5.725517223775063,174.65670976370933,-6.580152671755725,4.045801526717557,-3.6030534351145036,-0.848575712143928,0.07496251874062969,-0.44377811094452774,1241.0256410256409,97.03577641500078,31.501143143163063,
1770984550346.5469,4.630434782608695,-5.934782608695652,1.967391304347826,2.6475164572112506,-9.35966487133453,-0.3710353081986834,4064.468864468864,1857.8754578754576,1.0,5.725517223775063,174.65670976370933,-6.381679389312977,5.847328244274809,-2.7022900763358777,-0.8470764617691154,0.07196401799100449,-0.4407796101949025,1113.5531135531135,97.032928125992,31.501143143163063,
1770984550366.078,4.608695652173913,-5.826086956521739,2.043478260869565,2.6427289048473965,-9.28067025733094,-0.31837223219628963,4064.468864468864,1864.4688644688642,1.0,5.720411992188995,174.81258366800537,-6.885496183206107,8.076335877862595,-0.8244274809160305,-0.8365817091454273,0.06746626686656672,-0.43478260869565216,1035.164835164835,97.03007983978246,31.501143143163063,
1770984550385.6091,4.5978260869565215,-5.858695652173913,2.0652173913043477,2.637941352483543,-9.213644524236983,-0.2992220227408737,4063.003663003663,1865.9340659340658,1.0,5.720411992188995,174.81258366800537,-8.961832061068701,9.938931297709923,0.7480916030534351,-0.848575712143928,0.06296851574212893,-0.4452773613193403,1005.8608058608058,97.03577641500078,31.501143143163063,
1770984550405.1404,4.608695652173913,-6.010869565217392,2.0217391304347827,2.633153800119689,-9.393177737881508,-0.3207660083782166,4064.468864468864,1866.6666666666665,1.0,5.720411992188995,174.81258366800537,-10.82442748091603,11.740458015267174,2.1374045801526718,-0.8500749625187406,0.05397301349325337,-0.4302848575712144,1035.8974358974358,97.032928125992,31.501143143163063,
1770984550424.6714,4.608695652173913,-6.08695652173913,2.0543478260869565,2.6618791143028124,-9.520047875523638,-0.3087971274685817,4064.468864468864,1867.3992673992673,1.0,5.715306760602927,174.9687360428763,-11.221374045801527,13.679389312977099,2.9618320610687023,-0.8440779610194902,0.06296851574212893,-0.43778110944527737,1112.087912087912,97.03007983978246,31.501143143163063,
1770984550444.2024,4.619565217391305,-6.108695652173913,2.119565217391304,2.6355475763016156,-9.548773189706763,-0.24416517055655296,4064.468864468864,1867.3992673992673,1.0,5.715306760602927,174.9687360428763,-11.541984732824426,15.404580152671755,3.9083969465648853,-0.8395802098950524,0.06146926536731634,-0.43478260869565216,1208.7912087912086,97.03007983978246,31.501143143163063,
1770984550463.7336,4.58695652173913,-6.1521739130434785,2.1630434782608696,2.6116098144823456,-9.591861160981448,-0.1603830041891083,4064.468864468864,1868.131868131868,1.0,5.715306760602927,174.9687360428763,-12.717557251908396,16.946564885496183,4.412213740458015,-0.8515742128935532,0.07796101949025487,-0.43928035982008995,1312.8205128205127,97.032928125992,31.501143143163063,
1770984550483.2646,4.5978260869565215,-6.173913043478261,2.2065217391304346,2.5924596050269297,-9.632555356074207,-0.12208258527827648,4041.0256410256407,1834.4322344322343,1.0,5.715306760602927,174.9687360428763,-12.717557251908396,17.862595419847327,4.8396946564885495,-0.8440779610194902,0.06446776611694152,-0.43928035982008995,1402.197802197802,97.04147300141611,31.501143143163063,
1770984550502.796,4.543478260869565,-6.163043478260869,2.2391304347826084,2.590065828845003,-9.596648713345301,-0.10293237582286056,4036.6300366300366,1816.8498168498168,1.0,5.710201529016859,175.12516763522575,-12.442748091603052,18.213740458015266,4.351145038167939,-0.848575712143928,0.06446776611694152,-0.43928035982008995,1468.8644688644688,97.03862470680883,31.501143143163063,
1770984550522.327,4.532608695652174,-6.076086956521739,2.293478260869565,2.551765409934171,-9.522441651705565,-0.03590664272890485,4063.003663003663,1852.7472527472526,1.0,5.710201529016859,175.12516763522575,-11.572519083969466,18.48854961832061,4.534351145038168,-0.8470764617691154,0.08695652173913043,-0.4407796101949025,1512.087912087912,97.032928125992,31.501143143163063,
1770984550541.858,4.467391304347826,-6.010869565217392,2.3152173913043477,2.5254338719329743,-9.453022142429683,-0.0023937761819269898,4063.003663003663,1862.2710622710622,1.0,5.710201529016859,175.12516763522575,-11.206106870229007,18.47328244274809,4.045801526717557,-0.8440779610194902,0.08695652173913043,-0.43778110944527737,1523.0769230769229,97.04147300141611,31.501143143163063,
1770984550561.3892,4.510869565217392,-6.065217391304348,2.3043478260869565,2.511071214841412,-9.474566128067025,0.0,4036.6300366300366,1830.7692307692307,1.0,5.705096297430792,175.28187919463087,-11.145038167938932,17.908396946564885,4.106870229007633,-0.841079460269865,0.08395802098950525,-0.4452773613193403,1503.2967032967033,97.032928125992,31.501143143163063,
1770984550580.9202,4.478260869565217,-5.967391304347826,2.3043478260869565,2.5086774386594852,-9.37642130460802,0.009575104727707959,4064.468864468864,1857.142857142857,1.0,5.705096297430792,175.28187919463087,-9.587786259541984,17.63358778625954,4.045801526717557,-0.856071964017991,0.07946026986506746,-0.44377811094452774,1462.2710622710622,97.032928125992,31.501143143163063,
1770984550600.4512,4.413043478260869,-5.826086956521739,2.282608695652174,2.4608019150209457,-9.220825852782765,-0.0023937761819269898,4036.6300366300366,1829.3040293040292,1.0,5.705096297430792,175.28187919463087,-7.98473282442748,17.389312977099237,3.3893129770992365,-0.848575712143928,0.06896551724137931,-0.4482758620689655,1406.5934065934066,97.03577641500078,31.501143143163063,
1770984550619.9824,4.489130434782608,-5.706521739130435,2.217391304347826,2.4847396768402152,-9.156193895870736,-0.03590664272890485,4064.468864468864,1856.4102564102564,1.0,5.705096297430792,175.28187919463087,-7.816793893129771,16.85496183206107,3.1908396946564883,-0.8500749625187406,0.06596701649175413,-0.4512743628185907,1347.2527472527472,97.03862470680883,31.501143143163063,
1770984550639.5134,4.478260869565217,-5.684782608695652,2.130434782608696,2.5086774386594852,-9.070017953321365,-0.14602034709754638,4039.560439560439,1830.7692307692307,1.0,5.705096297430792,175.28187919463087,-7.587786259541985,16.9618320610687,3.1755725190839694,-0.8500749625187406,0.06896551724137931,-0.4422788605697151,1280.5860805860805,97.03862470680883,31.501143143163063,
1770984550659.045,4.5,-5.760869565217392,2.0652173913043477,2.4967085577498502,-9.110712148414123,-0.22262118491921004,4038.0952380952376,1816.117216117216,1.0,5.699991065844724,175.43887147335423,-7.648854961832061,16.366412213740457,2.717557251908397,-0.8545727136431783,0.08095952023988005,-0.43628185907046474,1226.3736263736264,97.03577641500078,31.501143143163063,
1770984550678.5757,4.489130434782608,-5.826086956521739,1.967391304347826,2.54458408138839,-9.187312986235787,-0.3064033512866547,4064.468864468864,1852.7472527472526,1.0,5.699991065844724,175.43887147335423,-7.877862595419847,16.519083969465647,2.519083969465649,-0.8515742128935532,0.08695652173913043,-0.44377811094452774,1178.7545787545787,97.03577641500078,31.501143143163063,
1770984550698.1067,4.543478260869565,-5.9021739130434785,1.8804347826086956,2.5493716337522443,-9.278276481149012,-0.43087971274685816,4063.003663003663,1862.2710622710622,1.0,5.699991065844724,175.43887147335423,-8.290076335877862,16.48854961832061,1.7709923664122136,-0.848575712143928,0.07796101949025487,-0.44377811094452774,1140.6593406593406,97.03577641500078,31.501143143163063,
1770984550717.638,4.5978260869565215,-5.891304347826087,1.8478260869565217,2.5924596050269297,-9.292639138240574,-0.5098743267504489,4064.468864468864,1865.9340659340658,1.0,5.694885834258656,175.5961452263559,-9.465648854961831,17.526717557251906,1.5114503816793892,-0.8425787106446776,0.06296851574212893,-0.43628185907046474,1127.4725274725274,97.03007983978246,31.501143143163063,
1770984550737.169,4.630434782608695,-5.9021739130434785,1.826086956521739,2.602034709754638,-9.333333333333334,-0.5242369838420108,4065.9340659340655,1873.260073260073,1.0,5.694885834258656,175.5961452263559,-11.099236641221374,19.221374045801525,1.7251908396946565,-0.8530734632683658,0.05697151424287856,-0.43478260869565216,1134.065934065934,97.032928125992,31.501143143163063,
1770984550756.7002,4.673913043478261,-5.83695652173913,1.7934782608695652,2.7097546379413524,-9.2327947336924,-0.5433871932974267,4064.468864468864,1868.8644688644688,1.0,5.694885834258656,175.5961452263559,-12.335877862595419,22.3206106870229,2.778625954198473,-0.8530734632683658,0.05847076461769115,-0.4422788605697151,1136.2637362637363,97.03577641500078,31.501143143163063,
1770984550776.2312,4.663043478260869,-5.815217391304348,1.8369565217391304,2.7001795332136447,-9.235188509874327,-0.5553560742070617,4064.468864468864,1867.3992673992673,1.0,5.694885834258656,175.5961452263559,-14.427480916030534,25.78625954198473,2.5038167938931295,-0.8635682158920539,0.06596701649175413,-0.4287856071964018,1138.4615384615383,97.03577641500078,31.501143143163063,
1770984550795.7622,4.673913043478261,-5.771739130434782,1.858695652173913,2.7025733093955715,-9.17773788150808,-0.5002992220227409,4041.0256410256407,1834.4322344322343,1.0,5.694885834258656,175.5961452263559,-15.709923664122137,28.748091603053435,3.099236641221374,-0.8500749625187406,0.08545727136431784,-0.44377811094452774,1156.7765567765566,97.03007983978246,31.501143143163063,
1770984550815.2937,4.684782608695652,-5.782608695652174,1.8804347826086956,2.7049670855774983,-9.189706762417714,-0.5218432076600837,4038.0952380952376,1818.3150183150183,1.0,5.694885834258656,175.5961452263559,-16.62595419847328,30.748091603053435,4.076335877862595,-0.8665667166416792,0.04947526236881559,-0.44377811094452774,1215.3846153846152,97.03007983978246,31.501143143163063,
1770984550834.8245,4.663043478260869,-5.804347826086956,1.934782608695652,2.7145421903052065,-9.201675643327349,-0.4428485936564931,4064.468864468864,1853.4798534798533,1.0,5.694885834258656,175.5961452263559,-17.19083969465649,31.78625954198473,4.885496183206107,-0.8575712143928036,0.041979010494752625,-0.4452773613193403,1328.2051282051282,97.03007983978246,31.501143143163063,
1770984550854.3557,4.630434782608695,-5.771739130434782,2.043478260869565,2.6355475763016156,-9.149012567324954,-0.3255535607420706,4063.003663003663,1863.003663003663,1.0,5.689780602672588,175.75370121130553,-17.251908396946565,31.51145038167939,5.114503816793893,-0.8515742128935532,0.07196401799100449,-0.43778110944527737,1508.4249084249084,97.03577641500078,31.501143143163063,
1770984550873.8867,4.663043478260869,-5.760869565217392,2.0869565217391304,2.7193297426690606,-9.146618791143029,-0.22980251346499103,4065.9340659340655,1872.5274725274724,1.0,5.689780602672588,175.75370121130553,-17.2824427480916,30.3206106870229,4.8396946564885495,-0.8575712143928036,0.05847076461769115,-0.43178410794602695,1717.9487179487178,97.032928125992,31.501143143163063,
1770984550893.4175,4.684782608695652,-5.815217391304348,2.0869565217391304,2.7336923997606224,-9.204069419509276,-0.23219628964691802,4063.003663003663,1868.131868131868,1.0,5.689780602672588,175.75370121130553,-16.82442748091603,28.091603053435115,3.6946564885496183,-0.8605697151424287,0.06596701649175413,-0.43928035982008995,1892.3076923076922,97.03862470680883,31.501143143163063,
1770984550912.949,4.684782608695652,-5.793478260869565,2.141304347826087,2.750448833034111,-9.199281867145421,-0.22980251346499103,4036.6300366300366,1832.234432234432,1.0,5.689780602672588,175.75370121130553,-15.358778625954198,25.32824427480916,2.900763358778626,-0.8650674662668666,0.06746626686656672,-0.4422788605697151,1971.4285714285713,97.03007983978246,31.501143143163063,
1770984550932.48,4.793478260869565,-5.793478260869565,2.152173913043478,2.8318372232196287,-9.192100538599641,-0.1627767803710353,4064.468864468864,1857.142857142857,1.0,5.689780602672588,175.75370121130553,-14.519083969465647,22.732824427480914,0.21374045801526717,-0.8635682158920539,0.08845577211394302,-0.4302848575712144,1946.5201465201465,97.03007983978246,31.501143143163063,
1770984550952.0112,4.9021739130434785,-5.923913043478261,2.2065217391304346,2.9443447037701973,-9.330939557151407,-0.12926391382405744,4041.0256410256407,1831.5018315018315,1.0,5.684675371086521,175.91154018859453,-14.580152671755725,21.709923664122137,-1.3893129770992365,-0.8605697151424287,0.05697151424287856,-0.424287856071964,1843.956043956044,97.03007983978246,31.501143143163063,
1770984550971.5422,4.956521739130435,-6.08695652173913,2.25,3.0041891083183723,-9.500897666068223,-0.05505685218432076,4038.0952380952376,1816.8498168498168,1.0,5.684675371086521,175.91154018859453,-15.053435114503817,22.290076335877863,-2.427480916030534,-0.8740629685157421,0.07346326836581708,-0.42728635682158916,1694.5054945054944,97.03007983978246,31.501143143163063,
1770984550991.0732,4.923913043478261,-6.195652173913043,2.25,3.001795332136445,-9.637342908438061,-0.052663076002393776,4063.003663003663,1852.0146520146518,1.0,5.684675371086521,175.91154018859453,-14.183206106870228,24.213740458015266,-2.748091603053435,-0.8710644677661169,0.05997001499250375,-0.44377811094452774,1528.937728937729,97.03007983978246,31.501143143163063,
1770984551010.6045,4.9021739130434785,-6.423913043478261,2.2391304347826084,2.9658886894075405,-9.886295631358468,-0.0718132854578097,4060.07326007326,1860.8058608058607,1.0,5.679570139500453,176.0696629213483,-14.778625954198473,25.43511450381679,-4.290076335877862,-0.8620689655172413,0.06146926536731634,-0.43928035982008995,1361.1721611721612,97.03862470680883,31.501143143163063,
1770984551030.1355,4.891304347826087,-6.641304347826087,2.25,2.9563135846798323,-10.152004787552364,-0.06702573309395571,4035.164835164835,1823.4432234432234,1.0,5.684675371086521,175.91154018859453,-14.076335877862595,26.916030534351144,-6.473282442748092,-0.8710644677661169,0.06146926536731634,-0.43628185907046474,1238.8278388278388,97.032928125992,31.501143143163063,
1770984551049.6665,4.83695652173913,-6.728260869565217,2.282608695652174,2.9228007181328546,-10.207061639736684,-0.016756433273488927,4063.003663003663,1854.212454212454,1.0,5.679570139500453,176.0696629213483,-11.648854961832061,28.015267175572518,-8.106870229007633,-0.8800599700149925,0.06746626686656672,-0.4287856071964018,1191.2087912087911,97.032928125992,31.501143143163063,
1770984551069.1978,4.739130434782608,-6.684782608695652,2.3152173913043477,2.846199880311191,-10.2262118491921,0.0023937761819269898,4063.003663003663,1863.003663003663,1.0,5.679570139500453,176.0696629213483,-9.282442748091603,28.534351145038165,-10.732824427480915,-0.8725637181409295,0.07946026986506746,-0.43478260869565216,1213.9194139194137,97.04147300141611,31.501143143163063,
1770984551088.7288,4.608695652173913,-6.565217391304348,2.3260869565217392,2.7217235188509874,-10.123279473369239,0.02872531418312388,4064.468864468864,1865.9340659340658,1.0,5.679570139500453,176.0696629213483,-7.007633587786259,27.96946564885496,-13.908396946564885,-0.8770614692653673,0.04947526236881559,-0.44377811094452774,1275.4578754578754,97.03862470680883,31.501143143163063,
1770984551108.26,4.478260869565217,-6.391304347826087,2.293478260869565,2.573309395571514,-9.960502692998205,0.01436265709156194,4041.0256410256407,1834.4322344322343,1.0,5.679570139500453,176.0696629213483,-5.0534351145038165,26.15267175572519,-16.671755725190838,-0.8740629685157421,0.046476761619190406,-0.42728635682158916,1343.5897435897434,97.03577641500078,31.501143143163063,
1770984551127.791,4.434782608695652,-6.25,2.260869565217391,2.4727707959305802,-9.766606822262117,-0.02154398563734291,4038.0952380952376,1817.5824175824175,1.0,5.679570139500453,176.0696629213483,-3.2061068702290076,23.114503816793892,-19.893129770992367,-0.8770614692653673,0.04497751124437781,-0.43178410794602695,1416.8498168498168,97.03577641500078,31.501143143163063,
1770984551147.322,4.304347826086956,-6.032608695652174,2.217391304347826,2.398563734290844,-9.572710951526032,-0.07660083782166367,4064.468864468864,1853.4798534798533,1.0,5.679570139500453,176.0696629213483,-1.2061068702290076,20.549618320610687,-22.458015267175572,-0.8860569715142429,0.06596701649175413,-0.44377811094452774,1493.7728937728937,97.03577641500078,31.501143143163063,
1770984551166.8533,4.260869565217392,-5.782608695652174,2.141304347826087,2.2740873728306403,-9.290245362058647,-0.13883901855176542,4061.5384615384614,1856.4102564102564,1.0,5.674464907914385,176.2280701754386,0.0916030534351145,19.12977099236641,-24.885496183206104,-0.8875562218890555,0.05997001499250375,-0.4467766116941529,1547.2527472527472,97.032928125992,31.501143143163063,
1770984551186.3845,4.260869565217392,-5.532608695652174,2.130434782608696,2.288450029922202,-8.991023339317774,-0.20107719928186715,4038.0952380952376,1824.1758241758241,1.0,5.674464907914385,176.2280701754386,0.5343511450381679,19.221374045801525,-26.229007633587784,-0.8950524737631184,0.06596701649175413,-0.4452773613193403,1547.2527472527472,97.03577641500078,31.501143143163063,
1770984551205.9155,4.163043478260869,-5.445652173913043,2.0760869565217392,2.2046678635547576,-8.801915020945541,-0.2561340514661879,4064.468864468864,1855.6776556776556,1.0,5.674464907914385,176.2280701754386,-1.0229007633587786,20.793893129770993,-25.725190839694655,-0.8935532233883058,0.08095952023988005,-0.4482758620689655,1490.10989010989,97.03577641500078,31.501143143163063,
1770984551225.4463,4.141304347826087,-5.4021739130434785,1.9891304347826086,2.128067025733094,-8.746858168761221,-0.33512866546977854,4038.0952380952376,1823.4432234432234,1.0,5.674464907914385,176.2280701754386,-2.091603053435114,23.022900763358777,-23.893129770992367,-0.9010494752623688,0.07496251874062969,-0.4482758620689655,1382.4175824175823,97.03007983978246,31.501143143163063,
1770984551244.9775,4.119565217391305,-5.445652173913043,1.9565217391304348,2.111310592459605,-8.777977259126272,-0.36146020347097546,4064.468864468864,1854.9450549450548,1.0,5.669359676328318,176.38676271949572,-3.7557251908396947,25.541984732824428,-19.954198473282442,-0.896551724137931,0.08245877061469264,-0.46026986506746626,1250.5494505494505,97.032928125992,31.501143143163063,
1770984551264.5088,4.108695652173913,-5.3478260869565215,1.9565217391304348,2.080191502094554,-8.725314183123878,-0.38539796529024534,4041.0256410256407,1831.5018315018315,1.0,5.669359676328318,176.38676271949572,-4.763358778625954,27.34351145038168,-15.419847328244273,-0.896551724137931,0.04497751124437781,-0.4422788605697151,1115.7509157509157,97.03577641500078,31.501143143163063,
1770984551284.0398,4.119565217391305,-5.1521739130434785,1.967391304347826,2.0754039497307,-8.52423698384201,-0.36146020347097546,4067.399267399267,1857.8754578754576,1.0,5.669359676328318,176.38676271949572,-5.2824427480916025,29.022900763358777,-11.206106870229007,-0.9070464767616192,0.05847076461769115,-0.4587706146926537,1002.1978021978022,97.03577641500078,31.501143143163063,
1770984551303.571,4.130434782608695,-5.032608695652174,1.9565217391304348,2.120885697187313,-8.363853979652902,-0.3901855176540993,4067.399267399267,1865.201465201465,1.0,5.669359676328318,176.38676271949572,-6.198473282442748,30.12213740458015,-6.015267175572519,-0.9115442278860569,0.06146926536731634,-0.46476761619190404,918.6813186813187,97.032928125992,31.501143143163063,
1770984551323.102,4.195652173913043,-5.065217391304348,1.9130434782608696,2.135248354278875,-8.344703770197487,-0.43566726511071213,4064.468864468864,1866.6666666666665,1.0,5.669359676328318,176.38676271949572,-8.366412213740457,30.610687022900763,-1.282442748091603,-0.9085457271364318,0.06596701649175413,-0.4707646176911544,858.6080586080585,97.03862470680883,31.501143143163063,
1770984551342.633,4.380434782608695,-5.434782608695652,1.8804347826086956,2.3530819868342308,-8.698982645122681,-0.48114901256732495,4041.0256410256407,1833.6996336996335,1.0,5.66425444474225,176.54574132492112,-11.206106870229007,30.198473282442748,4.015267175572519,-0.9070464767616192,0.07796101949025487,-0.45277361319340326,830.03663003663,97.032928125992,31.501143143163063,
1770984551362.1643,4.4021739130434785,-5.945652173913043,1.8043478260869565,2.3770197486535007,-9.292639138240574,-0.5266307600239377,4064.468864468864,1857.8754578754576,1.0,5.669359676328318,176.38676271949572,-13.709923664122137,30.488549618320608,8.916030534351144,-0.9100449775112444,0.07196401799100449,-0.4587706146926537,827.8388278388278,97.04432129882262,31.501143143163063,
1770984551381.6953,4.423913043478261,-6.326086956521739,1.7826086956521738,2.41771394374626,-9.771394374625972,-0.5840813883901855,4039.560439560439,1830.7692307692307,1.0,5.66425444474225,176.54574132492112,-14.335877862595419,30.381679389312975,14.549618320610687,-0.8995502248875562,0.0704647676161919,-0.46326836581709147,864.4688644688645,97.03577641500078,31.501143143163063,
1770984551401.2266,4.5,-6.576086956521739,1.7282608695652173,2.5014961101137043,-10.049072411729503,-0.6487133453022143,4064.468864468864,1857.142857142857,1.0,5.66425444474225,176.54574132492112,-13.541984732824426,29.603053435114504,18.12213740458015,-0.9025487256371814,0.05547226386806597,-0.46026986506746626,944.3223443223443,97.03007983978246,31.501143143163063,
1770984551420.7576,4.619565217391305,-6.739130434782608,1.7065217391304348,2.6116098144823456,-10.235786953919808,-0.6415320167564332,4041.0256410256407,1831.5018315018315,1.0,5.66425444474225,176.54574132492112,-12.839694656488549,28.50381679389313,22.35114503816794,-0.9100449775112444,0.05697151424287856,-0.46476761619190404,1056.4102564102564,97.03577641500078,31.501143143163063,
1770984551440.2886,4.782608695652174,-6.815217391304348,1.75,2.81508078994614,-10.365050867743866,-0.6463195691202872,4038.0952380952376,1816.8498168498168,1.0,5.66425444474225,176.54574132492112,-12.900763358778626,26.610687022900763,24.946564885496183,-0.9055472263868065,0.06746626686656672,-0.46026986506746626,1185.3479853479853,97.03577641500078,31.501143143163063,
1770984551459.8198,4.923913043478261,-6.8478260869565215,1.684782608695652,2.9156193895870737,-10.388988629563135,-0.6391382405745063,4064.468864468864,1853.4798534798533,1.0,5.66425444474225,176.54574132492112,-12.366412213740457,25.2824427480916,26.15267175572519,-0.9175412293853074,0.05847076461769115,-0.45577211394302847,1308.4249084249084,97.03577641500078,31.501143143163063,
1770984551479.3508,5.021739130434782,-6.782608695652174,1.6630434782608696,3.042489527229204,-10.348294434470377,-0.687013764213046,4061.5384615384614,1856.4102564102564,1.0,5.659149213156182,176.70500676589987,-11.755725190839694,24.3206106870229,25.236641221374043,-0.9070464767616192,0.06596701649175413,-0.46176911544227883,1425.6410256410256,97.03007983978246,31.501143143163063,
1770984551498.8818,5.076086956521739,-6.619565217391304,1.717391304347826,3.1262716935966486,-10.266906044284859,-0.6726511071214841,4038.0952380952376,1830.7692307692307,1.0,5.659149213156182,176.70500676589987,-10.763358778625953,23.2824427480916,22.15267175572519,-0.9040479760119939,0.07796101949025487,-0.46476761619190404,1524.5421245421244,97.03577641500078,31.501143143163063,
1770984551518.413,5.0978260869565215,-6.315217391304348,1.7717391304347825,3.2004787552363854,-9.967684021543985,-0.5912627169359664,4063.003663003663,1856.4102564102564,1.0,5.659149213156182,176.70500676589987,-9.32824427480916,22.534351145038165,16.65648854961832,-0.9010494752623688,0.0914542728635682,-0.46326836581709147,1627.106227106227,97.03577641500078,31.501143143163063,
1770984551537.944,5.119565217391304,-6.054347826086956,1.8804347826086956,3.277079593058049,-9.599042489527228,-0.5314183123877917,4038.0952380952376,1824.1758241758241,1.0,5.659149213156182,176.70500676589987,-8.610687022900763,22.595419847328245,11.236641221374045,-0.9025487256371814,0.06596701649175413,-0.46926536731634183,1736.9963369963368,97.03577641500078,31.501143143163063,
1770984551557.475,4.989130434782608,-5.934782608695652,1.891304347826087,3.1406343506882104,-9.400359066427288,-0.4428485936564931,4063.003663003663,1854.212454212454,1.0,5.659149213156182,176.70500676589987,-10.854961832061068,22.366412213740457,5.862595419847328,-0.8980509745127436,0.06596701649175413,-0.4737631184407796,1852.0146520146518,97.03577641500078,31.501143143163063,
1770984551577.0063,4.934782608695652,-5.782608695652174,1.8804347826086956,3.018551765409934,-9.247157390783961,-0.4859365649311789,4039.560439560439,1830.03663003663,1.0,5.654043981570114,176.8645598194131,-11.450381679389313,22.534351145038165,0.564885496183206,-0.9070464767616192,0.06446776611694152,-0.46176911544227883,1934.065934065934,97.03577641500078,31.501143143163063,
1770984551596.5374,4.923913043478261,-5.5978260869565215,1.8695652173913042,3.030520646319569,-9.043686415320167,-0.4955116696588869,4064.468864468864,1857.142857142857,1.0,5.654043981570114,176.8645598194131,-12.198473282442748,22.48854961832061,-3.66412213740458,-0.9025487256371814,0.05847076461769115,-0.46926536731634183,1952.3809523809523,97.03862470680883,31.501143143163063,
1770984551616.0686,4.793478260869565,-5.521739130434782,1.891304347826087,2.9228007181328546,-8.912028725314183,-0.47875523638539796,4063.003663003663,1863.7362637362637,1.0,5.654043981570114,176.8645598194131,-12.50381679389313,22.97709923664122,-5.969465648854961,-0.9025487256371814,0.08395802098950525,-0.4587706146926537,1888.6446886446886,97.04147300141611,31.501143143163063,
1770984551635.5996,4.706521739130435,-5.532608695652174,1.891304347826087,2.781567923399162,-8.888090963494912,-0.4452423698384201,4057.142857142857,1856.4102564102564,1.0,5.654043981570114,176.8645598194131,-13.572519083969466,23.69465648854962,-7.007633587786259,-0.9145427286356821,0.08245877061469264,-0.46926536731634183,1767.032967032967,97.03577641500078,31.501143143163063,
1770984551655.1309,4.641304347826087,-5.532608695652174,1.9565217391304348,2.6834230999401556,-8.904847396768401,-0.3925792938360263,4036.6300366300366,1829.3040293040292,1.0,5.648938749984047,177.0244012652508,-13.877862595419847,23.755725190839694,-7.114503816793893,-0.9190404797601199,0.05547226386806597,-0.46326836581709147,1601.4652014652013,97.03577641500078,31.501143143163063,
1770984551674.662,4.630434782608695,-5.521739130434782,1.9782608695652173,2.6834230999401556,-8.864153201675643,-0.4069419509275883,4064.468864468864,1856.4102564102564,1.0,5.648938749984047,177.0244012652508,-14.076335877862595,23.267175572519083,-6.870229007633587,-0.9115442278860569,0.04947526236881559,-0.472263868065967,1424.1758241758241,97.03418739225243,31.49109310740605,
1770984551694.1929,4.554347826086956,-5.630434782608695,1.891304347826087,2.573309395571514,-8.981448234590065,-0.3949730700179533,4039.560439560439,1830.03663003663,1.0,5.648938749984047,177.0244012652508,-14.6412213740458,23.206106870229007,-4.6106870229007635,-0.9220389805097451,0.04947526236881559,-0.46476761619190404,1257.8754578754579,97.03703563778618,31.49109310740605,
1770984551713.724,4.6521739130434785,-5.695652173913043,1.8804347826086956,2.6810293237582283,-9.070017953321365,-0.4428485936564931,4061.5384615384614,1849.084249084249,1.0,5.648938749984047,177.0244012652508,-14.48854961832061,22.519083969465647,-3.0839694656488548,-0.9160419790104948,0.06596701649175413,-0.4662668665667166,1098.9010989010987,97.03133914951788,31.49109310740605,
1770984551733.2551,4.717391304347826,-5.913043478260869,1.934782608695652,2.7097546379413524,-9.251944943147816,-0.4452423698384201,4039.560439560439,1827.8388278388277,1.0,5.648938749984047,177.0244012652508,-14.13740458015267,21.893129770992367,-0.7938931297709924,-0.9235382308845577,0.06596701649175413,-0.4767616191904048,980.9523809523808,97.03133914951788,31.49109310740605,
1770984551752.7864,4.706521739130435,-6.119565217391304,1.9130434782608696,2.7887492519449433,-9.52722920406942,-0.4404548174745661,4064.468864468864,1856.4102564102564,1.0,5.643833518397978,177.18453188602442,-14.48854961832061,21.725190839694655,1.0534351145038168,-0.9145427286356821,0.08845577211394302,-0.4662668665667166,952.3809523809523,97.03988388611906,31.49109310740605,
1770984551772.3174,4.619565217391305,-6.326086956521739,1.826086956521739,2.625972471573908,-9.792938360263316,-0.49790544584081387,4064.468864468864,1864.4688644688642,1.0,5.643833518397978,177.18453188602442,-13.206106870229007,21.69465648854962,3.0076335877862594,-0.9175412293853074,0.05397301349325337,-0.4587706146926537,987.5457875457874,97.03133914951788,31.49109310740605,
1770984551791.8484,4.804347826086956,-6.358695652173913,1.8478260869565217,2.834230999401556,-9.833632555356074,-0.5242369838420108,4058.6080586080584,1857.8754578754576,1.0,5.643833518397978,177.18453188602442,-11.450381679389313,18.610687022900763,0.33587786259541985,-0.9250374812593702,0.05247376311844078,-0.46476761619190404,1065.2014652014652,97.03133914951788,31.49109310740605,
1770984551811.3796,4.75,-6.423913043478261,1.8152173913043477,2.807899461400359,-9.886295631358468,-0.5433871932974267,4064.468864468864,1865.201465201465,1.0,5.643833518397978,177.18453188602442,-10.15267175572519,15.96946564885496,-0.366412213740458,-0.9205397301349325,0.05397301349325337,-0.4677661169415292,1183.8827838827838,97.03988388611906,31.49109310740605,
1770984551830.9106,4.75,-6.510869565217391,1.8478260869565217,2.800718132854578,-9.986834230999401,-0.5074805505685218,4064.468864468864,1867.3992673992673,1.0,5.643833518397978,177.18453188602442,-9.66412213740458,13.725190839694656,-1.9236641221374045,-0.9205397301349325,0.05247376311844078,-0.4677661169415292,1325.2747252747251,97.03418739225243,31.49109310740605,
1770984551850.442,4.739130434782608,-6.423913043478261,1.8152173913043477,2.810293237582286,-9.922202274087372,-0.5002992220227409,4064.468864468864,1868.131868131868,1.0,5.643833518397978,177.18453188602442,-8.961832061068701,11.251908396946565,-5.603053435114504,-0.9265367316341829,0.06596701649175413,-0.47976011994003,1468.8644688644688,97.03418739225243,31.49109310740605,
1770984551869.973,4.673913043478261,-6.239130434782608,1.891304347826087,2.7169359664871333,-9.685218432076601,-0.476361460203471,4063.003663003663,1866.6666666666665,1.0,5.63872828681191,177.34495246717972,-6.916030534351145,10.335877862595419,-8.549618320610687,-0.9175412293853074,0.06896551724137931,-0.48425787106446777,1590.4761904761904,97.03703563778618,31.49109310740605,
1770984551889.504,4.576086956521739,-6.054347826086956,1.891304347826087,2.6618791143028124,-9.584679832435667,-0.46199880311190905,4042.490842490842,1840.2930402930401,1.0,5.63872828681191,177.34495246717972,-6.122137404580153,9.465648854961831,-11.251908396946565,-0.9250374812593702,0.06446776611694152,-0.4752623688155922,1640.2930402930401,97.03988388611906,31.49109310740605,
1770984551909.0352,4.58695652173913,-5.934782608695652,1.9130434782608696,2.5924596050269297,-9.417115499700778,-0.45481747456612803,4065.9340659340655,1865.9340659340658,1.0,5.633623055225843,177.5056637970095,-6.3969465648854955,7.297709923664121,-13.145038167938932,-0.9280359820089955,0.05997001499250375,-0.4662668665667166,1624.1758241758241,97.03418739225243,31.49109310740605,
1770984551928.5662,4.5,-5.858695652173913,1.934782608695652,2.578096947935368,-9.297426690604429,-0.42848593656493117,4064.468864468864,1866.6666666666665,1.0,5.633623055225843,177.5056637970095,-4.702290076335878,6.671755725190839,-14.045801526717558,-0.9205397301349325,0.046476761619190406,-0.4752623688155922,1577.2893772893772,97.03418739225243,31.49109310740605,
1770984551948.0972,4.456521739130435,-5.858695652173913,1.9130434782608696,2.4799521244763616,-9.235188509874327,-0.4045481747456613,4060.07326007326,1865.201465201465,1.0,5.633623055225843,177.5056637970095,-4.67175572519084,6.427480916030534,-14.274809160305344,-0.9265367316341829,0.043478260869565216,-0.472263868065967,1509.89010989011,97.03418739225243,31.49109310740605,
1770984551967.6284,4.5,-5.826086956521739,1.891304347826087,2.4871334530221425,-9.261520047875523,-0.41651705565529623,4065.9340659340655,1872.5274725274724,1.0,5.633623055225843,177.5056637970095,-3.618320610687023,6.809160305343511,-12.396946564885496,-0.9235382308845577,0.05697151424287856,-0.472263868065967,1431.5018315018315,97.03988388611906,31.49109310740605,
1770984551987.1594,4.358695652173913,-5.869565217391304,1.891304347826087,2.4560143626570916,-9.228007181328545,-0.4189108318372232,4065.9340659340655,1874.7252747252746,1.0,5.633623055225843,177.5056637970095,-2.900763358778626,7.007633587786259,-10.335877862595419,-0.9250374812593702,0.05997001499250375,-0.472263868065967,1361.904761904762,97.03418739225243,31.49109310740605,
1770984552006.691,4.326086956521739,-5.923913043478261,1.8478260869565217,2.336325553560742,-9.299820466786356,-0.48354278874925194,4043.9560439560437,1838.095238095238,1.0,5.628517823639775,177.66666666666666,-2.213740458015267,5.0534351145038165,-9.022900763358779,-0.9280359820089955,0.05997001499250375,-0.47976011994003,1307.6923076923076,97.03418739225243,31.49109310740605,
1770984552026.2217,4.326086956521739,-6.065217391304348,1.7608695652173914,2.341113105924596,-9.429084380610412,-0.5792938360263316,4064.468864468864,1858.6080586080584,1.0,5.628517823639775,177.66666666666666,-1.1755725190839694,2.4580152671755724,-6.473282442748092,-0.9295352323838081,0.07196401799100449,-0.4767616191904048,1248.3516483516482,97.03988388611906,31.49109310740605,
1770984552045.7527,4.315217391304348,-6.239130434782608,1.7065217391304348,2.2980251346499103,-9.625374027528427,-0.6798324356672651,4041.0256410256407,1832.234432234432,1.0,5.628517823639775,177.66666666666666,-0.1984732824427481,-0.9007633587786259,-4.854961832061068,-0.9265367316341829,0.08545727136431784,-0.472263868065967,1203.6630036630036,97.03418739225243,31.49109310740605,
1770984552065.284,4.3478260869565215,-6.380434782608695,1.684782608695652,2.336325553560742,-9.812088569718732,-0.6726511071214841,4038.0952380952376,1817.5824175824175,1.0,5.628517823639775,177.66666666666666,1.2366412213740459,-4.106870229007633,-3.0229007633587783,-0.9385307346326837,0.04947526236881559,-0.4737631184407796,1183.8827838827838,97.03418739225243,31.49109310740605,
1770984552084.815,4.391304347826087,-6.304347826086956,1.641304347826087,2.405745062836625,-9.80490724117295,-0.7157390783961699,4064.468864468864,1853.4798534798533,1.0,5.623412592053707,177.82796187017703,3.3893129770992365,-5.938931297709924,-2.3053435114503817,-0.9340329835082458,0.07196401799100449,-0.472263868065967,1191.2087912087911,97.03418739225243,31.49109310740605,
1770984552104.3462,4.4021739130434785,-6.0978260869565215,1.5869565217391304,2.391382405745063,-9.594254937163376,-0.7492519449431478,4058.6080586080584,1854.9450549450548,1.0,5.623412592053707,177.82796187017703,3.8167938931297707,-7.893129770992366,-2.5038167938931295,-0.9370314842578711,0.05697151424287856,-0.48125937031484256,1215.3846153846152,97.03988388611906,31.49109310740605,
1770984552123.8772,4.423913043478261,-6.032608695652174,1.5543478260869565,2.4488330341113107,-9.438659485338121,-0.8114901256732495,4065.9340659340655,1870.3296703296703,1.0,5.623412592053707,177.82796187017703,3.2213740458015265,-10.305343511450381,-2.8854961832061066,-0.9400299850074962,0.05547226386806597,-0.4752623688155922,1249.084249084249,97.03133914951788,31.49109310740605,
1770984552143.4082,4.478260869565217,-6.054347826086956,1.5,2.4823459006582884,-9.4721723518851,-0.8785158587672053,4064.468864468864,1868.131868131868,1.0,5.623412592053707,177.82796187017703,3.618320610687023,-12.122137404580153,-3.2213740458015265,-0.9310344827586207,0.07196401799100449,-0.4752623688155922,1305.4945054945053,97.03133914951788,31.49109310740605,
1770984552162.9397,4.434782608695652,-5.923913043478261,1.5108695652173914,2.4536205864751643,-9.393177737881508,-0.8641532016756434,4063.003663003663,1867.3992673992673,1.0,5.623412592053707,177.82796187017703,4.213740458015267,-12.961832061068701,-3.541984732824427,-0.9295352323838081,0.05247376311844078,-0.4737631184407796,1391.2087912087911,97.02849090958246,31.49109310740605,
1770984552182.4705,4.413043478260869,-5.826086956521739,1.5326086956521738,2.41771394374626,-9.242369838420107,-0.8641532016756434,4064.468864468864,1867.3992673992673,1.0,5.6183073604676395,177.9895502044525,3.282442748091603,-14.076335877862595,-3.679389312977099,-0.9340329835082458,0.05547226386806597,-0.472263868065967,1506.227106227106,97.03133914951788,31.49109310740605,
1770984552202.0017,4.391304347826087,-5.9021739130434785,1.4782608695652173,2.4009575104727707,-9.28785158587672,-0.8952722920406941,4041.0256410256407,1834.4322344322343,1.0,5.6183073604676395,177.9895502044525,2.2748091603053435,-15.129770992366412,-1.9541984732824427,-0.9355322338830584,0.046476761619190406,-0.4737631184407796,1632.2344322344322,97.03133914951788,31.49109310740605,
1770984552221.5327,4.4021739130434785,-6.065217391304348,1.4456521739130435,2.4033512866546975,-9.469778575703172,-0.9694793536804308,4065.9340659340655,1864.4688644688642,1.0,5.6183073604676395,177.9895502044525,1.297709923664122,-16.946564885496183,0.1984732824427481,-0.9220389805097451,0.04947526236881559,-0.4662668665667166,1737.7289377289376,97.03703563778618,31.49109310740605,
1770984552241.0637,4.413043478260869,-6.173913043478261,1.434782608695652,2.41771394374626,-9.615798922800717,-0.9646918013165768,4064.468864468864,1866.6666666666665,1.0,5.613202128881572,178.1514324693042,1.2213740458015268,-18.15267175572519,2.2442748091603053,-0.9340329835082458,0.05397301349325337,-0.4677661169415292,1810.989010989011,97.03418739225243,31.49109310740605,
1770984552260.595,4.434782608695652,-6.260869565217391,1.4456521739130435,2.4248952722920407,-9.716337522441652,-0.9742669060442848,4057.142857142857,1857.8754578754576,1.0,5.613202128881572,178.1514324693042,1.0381679389312977,-20.3206106870229,4.015267175572519,-0.9280359820089955,0.05697151424287856,-0.47976011994003,1832.234432234432,97.03418739225243,31.49109310740605,
1770984552280.126,4.445652173913043,-6.326086956521739,1.4565217391304348,2.4631956912028725,-9.769000598444045,-0.940754039497307,4063.003663003663,1863.7362637362637,1.0,5.613202128881572,178.1514324693042,0.15267175572519084,-23.389312977099237,5.038167938931298,-0.9265367316341829,0.06296851574212893,-0.4752623688155922,1772.161172161172,97.03418739225243,31.49109310740605,
1770984552299.6572,4.521739130434782,-6.293478260869565,1.4565217391304348,2.4703770197486534,-9.783363255535606,-0.9287851585876721,4063.003663003663,1865.201465201465,1.0,5.613202128881572,178.1514324693042,0.24427480916030533,-25.755725190839694,4.9465648854961835,-0.9250374812593702,0.050974512743628186,-0.4752623688155922,1673.260073260073,97.03418739225243,31.49109310740605,
1770984552319.1882,4.608695652173913,-6.065217391304348,1.5978260869565217,2.594853381208857,-9.618192698982645,-0.8473967684021544,4061.5384615384614,1859.3406593406592,1.0,5.613202128881572,178.1514324693042,-0.13740458015267176,-25.66412213740458,4.152671755725191,-0.9265367316341829,0.08545727136431784,-0.46926536731634183,1550.9157509157508,97.03418739225243,31.49109310740605,
1770984552338.7192,4.663043478260869,-5.826086956521739,1.75,2.6906044284859365,-9.347695990424896,-0.713345302214243,4063.003663003663,1863.7362637362637,1.0,5.613202128881572,178.1514324693042,-2.0610687022900764,-23.31297709923664,3.312977099236641,-0.9220389805097451,0.06746626686656672,-0.4677661169415292,1417.5824175824175,97.03418739225243,31.49109310740605,
1770984552358.2505,4.673913043478261,-5.706521739130435,1.858695652173913,2.7217235188509874,-9.158587672052663,-0.5601436265709157,4041.0256410256407,1833.6996336996335,1.0,5.608096897295503,178.31360946745562,-4.1679389312977095,-20.3206106870229,2.610687022900763,-0.9250374812593702,0.43178410794602695,-0.4587706146926537,1292.3076923076922,97.03133914951788,31.49109310740605,
1770984552377.7815,4.630434782608695,-5.641304347826087,1.9239130434782608,2.7121484141232792,-9.086774386594854,-0.43327348892878514,4064.468864468864,1857.8754578754576,1.0,5.602991665709436,178.4760820045558,-4.977099236641221,-17.12977099236641,2.33587786259542,-0.9160419790104948,0.05547226386806597,-0.46476761619190404,1177.2893772893772,97.03418739225243,31.49109310740605,
1770984552397.3125,4.543478260869565,-5.641304347826087,1.9456521739130435,2.6044284859365647,-9.012567324955116,-0.3925792938360263,4063.003663003663,1863.7362637362637,1.0,5.602991665709436,178.4760820045558,-5.114503816793893,-15.923664122137405,1.9236641221374045,-0.9145427286356821,0.05397301349325337,-0.4752623688155922,1098.9010989010987,97.03133914951788,31.49109310740605,
1770984552416.8438,4.5,-5.6521739130434785,1.9891304347826086,2.54458408138839,-9.012567324955116,-0.34709754637941354,4057.142857142857,1857.142857142857,1.0,5.602991665709436,178.4760820045558,-4.534351145038168,-15.48091603053435,2.0,-0.9175412293853074,0.06296851574212893,-0.46926536731634183,1063.003663003663,97.03703563778618,31.49109310740605,
1770984552436.3748,4.521739130434782,-5.641304347826087,2.0543478260869565,2.5302214242968284,-9.007779772591263,-0.2992220227408737,4036.6300366300366,1829.3040293040292,1.0,5.602991665709436,178.4760820045558,-3.2671755725190836,-15.465648854961831,2.7022900763358777,-0.9145427286356821,0.06296851574212893,-0.4752623688155922,1048.3516483516482,97.03418739225243,31.49109310740605,
1770984552455.906,4.554347826086956,-5.771739130434782,2.0869565217391304,2.551765409934171,-9.074805505685218,-0.23937761819269898,4064.468864468864,1857.142857142857,1.0,5.602991665709436,178.4760820045558,-3.5725190839694654,-15.648854961832061,3.801526717557252,-0.9160419790104948,0.06146926536731634,-0.46476761619190404,1057.142857142857,97.03418739225243,31.49109310740605,
1770984552475.437,4.554347826086956,-5.923913043478261,2.0217391304347827,2.5924596050269297,-9.278276481149012,-0.2561340514661879,4063.003663003663,1863.7362637362637,1.0,5.602991665709436,178.4760820045558,-3.5877862595419847,-16.015267175572518,4.366412213740458,-0.9130434782608695,0.05247376311844078,-0.45577211394302847,1097.4358974358975,97.03418739225243,31.49109310740605,
1770984552494.968,4.565217391304348,-6.08695652173913,1.967391304347826,2.587672052663076,-9.460203470975463,-0.3399162178336326,4064.468864468864,1860.07326007326,1.0,5.597886434123368,178.63885088919287,-2.946564885496183,-16.702290076335878,4.5038167938931295,-0.9220389805097451,0.05547226386806597,-0.46476761619190404,1166.3003663003662,97.03133914951788,31.49109310740605,
1770984552514.4993,4.608695652173913,-6.163043478260869,2.0,2.606822262118492,-9.58228605625374,-0.34709754637941354,4041.0256410256407,1832.234432234432,1.0,5.597886434123368,178.63885088919287,-2.0,-17.938931297709924,4.580152671755725,-0.9145427286356821,0.05547226386806597,-0.46026986506746626,1247.6190476190475,97.03418739225243,31.49109310740605,
1770984552534.0305,4.663043478260869,-6.239130434782608,2.0217391304347827,2.6906044284859365,-9.646918013165768,-0.33034111310592457,4038.0952380952376,1817.5824175824175,1.0,5.597886434123368,178.63885088919287,-1.9083969465648853,-19.2824427480916,4.152671755725191,-0.9175412293853074,0.05697151424287856,-0.46026986506746626,1322.3443223443223,97.03418739225243,31.49109310740605,
1770984552553.5615,4.663043478260869,-6.184782608695652,2.032608695652174,2.6858168761220824,-9.642130460801916,-0.29204069419509276,4065.9340659340655,1859.3406593406592,1.0,5.597886434123368,178.63885088919287,-1.3282442748091603,-20.030534351145036,3.0839694656488548,-0.9145427286356821,0.05997001499250375,-0.4587706146926537,1389.0109890109889,97.03988388611906,31.49109310740605,
1770984552573.0923,4.706521739130435,-6.08695652173913,2.0543478260869565,2.7336923997606224,-9.546379413524836,-0.31358467983243565,4058.6080586080584,1857.142857142857,1.0,5.5927812025373,178.80191693290735,-1.2519083969465647,-20.519083969465647,1.2061068702290076,-0.9100449775112444,0.0704647676161919,-0.45577211394302847,1435.164835164835,97.03418739225243,31.49109310740605,
1770984552592.6235,4.75,-5.978260869565217,2.141304347826087,2.793536804308797,-9.42429682824656,-0.19868342309994014,4038.0952380952376,1824.1758241758241,1.0,5.5927812025373,178.80191693290735,-1.1603053435114503,-20.0,-1.2061068702290076,-0.9085457271364318,0.06446776611694152,-0.4452773613193403,1447.6190476190475,97.03703563778618,31.49109310740605,
1770984552612.1548,4.695652173913043,-5.945652173913043,2.2391304347826084,2.7695990424895274,-9.371633752244165,-0.08378216636744464,4064.468864468864,1855.6776556776556,1.0,5.5927812025373,178.80191693290735,-1.66412213740458,-18.80916030534351,-3.1908396946564883,-0.9040479760119939,0.08095952023988005,-0.45727136431784104,1461.5384615384614,97.02849090958246,31.49109310740605,
1770984552631.6858,4.663043478260869,-5.858695652173913,2.2391304347826084,2.7001795332136447,-9.28067025733094,-0.05505685218432076,4064.468864468864,1863.7362637362637,1.0,5.5927812025373,178.80191693290735,-1.083969465648855,-17.48091603053435,-5.038167938931298,-0.9070464767616192,0.08395802098950525,-0.45277361319340326,1475.4578754578754,97.03418739225243,31.49109310740605,
1770984552651.217,4.608695652173913,-5.771739130434782,2.260869565217391,2.657091561938959,-9.165769000598443,-0.047875523638539794,4060.07326007326,1864.4688644688642,1.0,5.5927812025373,178.80191693290735,-0.183206106870229,-16.076335877862594,-6.580152671755725,-0.8995502248875562,0.0704647676161919,-0.46476761619190404,1466.6666666666665,97.03418739225243,31.49109310740605,
1770984552670.748,4.543478260869565,-5.75,2.3260869565217392,2.575703171753441,-9.139437462597247,0.009575104727707959,4041.0256410256407,1832.9670329670328,1.0,5.587675970951233,178.96528095020557,-1.0229007633587786,-14.931297709923664,-7.267175572519084,-0.8980509745127436,0.06446776611694152,-0.46326836581709147,1436.6300366300366,97.03498190235878,31.496118125139038,
1770984552690.279,4.521739130434782,-5.804347826086956,2.369565217391304,2.54458408138839,-9.175344105326152,0.10053859964093358,4038.0952380952376,1817.5824175824175,1.0,5.587675970951233,178.96528095020557,-1.083969465648855,-13.755725190839694,-7.206106870229007,-0.8980509745127436,0.06446776611694152,-0.4497751124437781,1397.069597069597,97.03498190235878,31.496118125139038,
1770984552709.8103,4.608695652173913,-5.782608695652174,2.4891304347826084,2.5302214242968284,-9.16816277678037,0.1172950329144225,4065.9340659340655,1859.3406593406592,1.0,5.587675970951233,178.96528095020557,-0.564885496183206,-11.450381679389313,-6.824427480916031,-0.8995502248875562,0.05997001499250375,-0.44377811094452774,1348.7179487179487,97.04067844249968,31.496118125139038,
1770984552729.3413,6.076086956521739,-5.793478260869565,2.043478260869565,3.0712148414123277,-9.244763614602034,-0.08856971873129862,4058.6080586080584,1856.4102564102564,1.0,5.582570739365165,179.12894375857337,-2.4122137404580153,20.366412213740457,-3.4045801526717554,-0.9085457271364318,0.08545727136431784,-0.4662668665667166,1300.3663003663003,97.0321336364871,31.496118125139038,
1770984552748.8726,8.402173913043478,-5.891304347826087,1.75,5.857570317175344,-9.175344105326152,-0.7372830640335128,4065.9340659340655,1870.3296703296703,1.0,5.582570739365165,179.12894375857337,-9.526717557251908,129.17557251908397,10.48854961832061,-0.9055472263868065,0.04497751124437781,-0.45577211394302847,1256.4102564102564,97.03498190235878,31.496118125139038,
1770984552768.4036,6.25,-6.239130434782608,2.1630434782608696,5.862357869539198,-9.611011370436865,-0.3758228605625374,4065.9340659340655,1874.7252747252746,1.0,5.582570739365165,179.12894375857337,0.04580152671755725,196.45801526717557,20.030534351145036,-0.9085457271364318,0.04497751124437781,-0.4587706146926537,1263.7362637362637,97.03783017102964,31.496118125139038,
1770984552787.9346,4.0978260869565215,-6.130434782608695,2.4565217391304346,3.052064631956912,-9.639736684619988,0.09814482345900657,4054.212454212454,1859.3406593406592,1.0,5.582570739365165,179.12894375857337,6.488549618320611,222.59541984732823,23.877862595419845,-0.9070464767616192,0.06146926536731634,-0.49025487256371814,1374.3589743589744,97.03498190235878,31.496118125139038,
1770984552807.4658,3.25,-5.978260869565217,2.4782608695652173,1.3692399760622382,-9.469778575703172,0.23219628964691802,4058.6080586080584,1857.142857142857,1.0,5.582570739365165,179.12894375857337,2.7022900763358777,206.50381679389312,14.15267175572519,-0.9205397301349325,0.06746626686656672,-0.5007496251874063,1567.032967032967,97.04067844249968,31.496118125139038,
1770984552826.9968,2.25,-5.989130434782608,2.5978260869565215,0.6630760023937762,-9.350089766606821,0.2848593656493118,4039.560439560439,1830.7692307692307,1.0,5.582570739365165,179.12894375857337,0.7938931297709924,165.3587786259542,12.0,-0.9250374812593702,0.05997001499250375,-0.5082458770614693,1756.7765567765566,97.0321336364871,31.496118125139038,
1770984552846.5278,1.4891304347826086,-5.923913043478261,2.8152173913043477,-0.6582884500299222,-9.338120885697187,0.5194494314781568,4064.468864468864,1857.142857142857,1.0,5.582570739365165,179.12894375857337,-2.5801526717557253,94.65648854961832,6.091603053435114,-0.9280359820089955,0.06146926536731634,-0.5187406296851574,1892.3076923076922,97.03783017102964,31.496118125139038,
1770984552866.059,2.0652173913043477,-5.934782608695652,2.934782608695652,-0.5146618791143028,-9.304608019150209,0.7396768402154399,4064.468864468864,1863.7362637362637,1.0,5.577465507779097,179.2929061784897,-8.381679389312977,17.603053435114504,-3.297709923664122,-0.9280359820089955,0.05547226386806597,-0.5097451274362819,1929.6703296703295,97.0321336364871,31.496118125139038,
1770984552885.59,2.7391304347826084,-6.054347826086956,2.760869565217391,0.45242369838420105,-9.400359066427288,0.6487133453022143,4057.142857142857,1857.142857142857,1.0,5.577465507779097,179.2929061784897,-10.549618320610687,-42.2442748091603,-6.534351145038167,-0.9385307346326837,0.07646176911544228,-0.5112443778110944,1896.7032967032965,97.03498190235878,31.496118125139038,
1770984552905.121,2.880434782608696,-6.08695652173913,2.652173913043478,0.6702573309395571,-9.51047277079593,0.4859365649311789,4064.468864468864,1864.4688644688642,1.0,5.577465507779097,179.2929061784897,-7.66412213740458,-91.86259541984732,-9.450381679389313,-0.9280359820089955,0.0704647676161919,-0.52023988005997,1843.2234432234432,97.03498190235878,31.496118125139038,
1770984552924.6523,3.684782608695652,-6.021739130434782,2.467391304347826,1.3883901855176541,-9.453022142429683,0.2704967085577498,4063.003663003663,1865.201465201465,1.0,5.577465507779097,179.2929061784897,-6.809160305343511,-124.25954198473282,-13.618320610687022,-0.9250374812593702,0.05397301349325337,-0.4962518740629685,1769.230769230769,97.03498190235878,31.496118125139038,
1770984552944.183,3.9782608695652173,-5.989130434782608,2.4239130434782608,1.9126271693596648,-9.433871932974267,0.17953321364452424,4063.003663003663,1865.9340659340658,1.0,5.577465507779097,179.2929061784897,-4.793893129770992,-138.44274809160305,-12.6412213740458,-0.9235382308845577,0.05997001499250375,-0.49025487256371814,1675.4578754578754,97.02928537341467,31.496118125139038,
1770984552963.7146,4.260869565217392,-5.804347826086956,2.4239130434782608,2.12327947336924,-9.254338719329743,0.15559545182525433,4064.468864468864,1866.6666666666665,1.0,5.57236027619303,179.4571690334402,-2.1068702290076335,-142.87022900763358,-12.167938931297709,-0.9130434782608695,0.05397301349325337,-0.4677661169415292,1573.6263736263736,97.03498190235878,31.496118125139038,
1770984552983.2456,4.554347826086956,-5.771739130434782,2.391304347826087,2.546977857570317,-9.144225014961101,0.09814482345900657,4038.0952380952376,1827.106227106227,1.0,5.57236027619303,179.4571690334402,-2.5343511450381677,-138.06106870229007,-8.977099236641221,-0.9205397301349325,0.07946026986506746,-0.4737631184407796,1456.4102564102564,97.0321336364871,31.496118125139038,
1770984553002.7769,4.826086956521739,-5.913043478260869,2.3260869565217392,2.81508078994614,-9.283064033512867,-0.0023937761819269898,4063.003663003663,1854.9450549450548,1.0,5.57236027619303,179.4571690334402,-4.5038167938931295,-125.77099236641222,-8.335877862595419,-0.9040479760119939,0.046476761619190406,-0.46476761619190404,1326.007326007326,97.03498190235878,31.496118125139038,
1770984553022.308,5.119565217391304,-6.021739130434782,2.2391304347826084,3.1813285457809695,-9.43147815679234,-0.07660083782166367,4063.003663003663,1863.003663003663,1.0,5.57236027619303,179.4571690334402,-4.580152671755725,-105.77099236641222,-5.236641221374046,-0.8980509745127436,0.06896551724137931,-0.46026986506746626,1215.3846153846152,97.04067844249968,31.496118125139038,
1770984553041.8389,5.173913043478261,-6.08695652173913,2.141304347826087,3.279473369239976,-9.524835427887492,-0.17953321364452424,4055.6776556776554,1850.5494505494505,1.0,5.567255044606961,179.6217331499312,-3.3740458015267176,-81.05343511450381,-2.9923664122137406,-0.9010494752623688,0.05697151424287856,-0.4542728635682159,1148.7179487179487,97.03498190235878,31.496118125139038,
1770984553061.37,5.293478260869565,-6.076086956521739,2.0978260869565215,3.3776181926989826,-9.496110113704368,-0.234590065828845,4036.6300366300366,1827.106227106227,1.0,5.567255044606961,179.6217331499312,-2.610687022900763,-54.27480916030534,-0.7633587786259541,-0.9025487256371814,0.07346326836581708,-0.45577211394302847,1142.1245421245421,97.03498190235878,31.496118125139038,
1770984553080.9011,5.173913043478261,-6.065217391304348,2.0652173913043477,3.2555356074207062,-9.493716337522441,-0.24177139437462597,4063.003663003663,1854.9450549450548,1.0,5.567255044606961,179.6217331499312,-1.816793893129771,-28.717557251908396,2.6412213740458013,-0.8980509745127436,0.05547226386806597,-0.4497751124437781,1195.6043956043954,97.03783017102964,31.496118125139038,
1770984553100.4324,4.945652173913043,-6.054347826086956,2.0760869565217392,3.035308198683423,-9.496110113704368,-0.24416517055655296,4057.142857142857,1854.9450549450548,1.0,5.567255044606961,179.6217331499312,-0.9312977099236641,-8.67175572519084,3.2671755725190836,-0.8905547226386806,0.06746626686656672,-0.4542728635682159,1288.6446886446886,97.02643711314141,31.496118125139038,
1770984553119.9634,4.673913043478261,-6.0,2.130434782608696,2.8988629563135846,-9.448234590065828,-0.24177139437462597,4064.468864468864,1863.7362637362637,1.0,5.562149813020893,179.78659935750343,-0.7938931297709924,3.9236641221374042,3.9389312977099236,-0.9040479760119939,0.06146926536731634,-0.4542728635682159,1371.4285714285713,97.03498190235878,31.496118125139038,
