Shimmer_A679_TimestampSync_Unix_CAL,Shimmer_A679_Accel_LN_X_CAL,Shimmer_A679_Accel_LN_Y_CAL,Shimmer_A679_Accel_LN_Z_CAL,Shimmer_A679_Accel_WR_X_CAL,Shimmer_A679_Accel_WR_Y_CAL,Shimmer_A679_Accel_WR_Z_CAL,Shimmer_A679_Battery_CAL,Shimmer_A679_Ext_Exp_A15_CAL,Shimmer_A679_GSR_Range_CAL,Shimmer_A679_GSR_Skin_Conductance_CAL,Shimmer_A679_GSR_Skin_Resistance_CAL,Shimmer_A679_Gyro_X_CAL,Shimmer_A679_Gyro_Y_CAL,Shimmer_A679_Gyro_Z_CAL,Shimmer_A679_Mag_X_CAL,Shimmer_A679_Mag_Y_CAL,Shimmer_A679_Mag_Z_CAL,Shimmer_A679_PPG_A13_CAL,Shimmer_A679_Pressure_BMP280_CAL,Shimmer_A679_Temperature_BMP280_CAL,Unnamed: 21
1770985323016.45,4.25,-5.706521739130435,2.043478260869565,2.1926989826451226,-9.132256134051467,-0.29443447037701975,4026.373626373626,1798.5347985347985,1.0,4.995469106967365,200.18140010219727,-20.030534351145036,19.022900763358777,5.435114503816794,-0.9265367316341829,0.043478260869565216,-0.46476761619190404,1803.6630036630036,97.02975018318706,31.48104307281319,
1770985323035.981,4.33695652173913,-5.706521739130435,1.9782608695652173,2.3099940155595453,-9.110712148414123,-0.33034111310592457,4049.8168498168498,1824.9084249084249,1.0,4.995469106967365,200.18140010219727,-20.335877862595417,17.404580152671755,7.221374045801526,-0.9190404797601199,0.035982008995502246,-0.4542728635682159,1687.179487179487,97.03259837964761,31.48104307281319,
1770985323055.512,4.423913043478261,-5.695652173913043,2.0,2.4225014961101135,-9.067624177139438,-0.34230999401555956,4051.282051282051,1838.095238095238,1.0,5.000574338553432,199.97702909647782,-20.85496183206107,17.175572519083968,10.15267175572519,-0.9145427286356821,0.038980509745127435,-0.4752623688155922,1528.2051282051282,97.02975018318706,31.48104307281319,
1770985323075.0432,4.423913043478261,-5.6521739130434785,1.9891304347826086,2.4368641532016757,-9.038898862956314,-0.34470377019748655,4043.9560439560437,1827.106227106227,1.0,5.000574338553432,199.97702909647782,-20.717557251908396,18.702290076335878,12.50381679389313,-0.9205397301349325,0.046476761619190406,-0.4677661169415292,1367.032967032967,97.0269019895256,31.48104307281319,
1770985323094.5742,4.445652173913043,-5.760869565217392,2.032608695652174,2.4608019150209457,-9.13704368641532,-0.3255535607420706,4023.4432234432234,1795.6043956043954,1.0,5.0056795701395,199.77307496175425,-21.572519083969464,20.015267175572518,15.84732824427481,-0.9235382308845577,0.046476761619190406,-0.45277361319340326,1231.5018315018315,97.0240537986632,31.48104307281319,
1770985323114.1057,4.380434782608695,-6.0,2.010869565217391,2.410532615200479,-9.37642130460802,-0.31597845601436264,4049.8168498168498,1823.4432234432234,1.0,5.0056795701395,199.77307496175425,-22.671755725190838,21.358778625954198,18.213740458015266,-0.9220389805097451,0.050974512743628186,-0.46326836581709147,1133.3333333333333,97.03259837964761,31.48104307281319,
1770985323133.6365,4.369565217391305,-6.217391304347826,1.9130434782608696,2.367444643925793,-9.668461998803112,-0.41172950329144226,4049.8168498168498,1831.5018315018315,1.0,5.01078480172557,199.56953642384101,-22.687022900763356,19.603053435114504,20.30534351145038,-0.9175412293853074,0.05847076461769115,-0.45727136431784104,1093.040293040293,97.0269019895256,31.48104307281319,
1770985323153.1675,4.391304347826087,-6.206521739130435,1.8804347826086956,2.405745062836625,-9.649311789347696,-0.466786355475763,4051.282051282051,1839.5604395604394,1.0,5.015890033311637,199.36641221374043,-20.80916030534351,17.022900763358777,20.47328244274809,-0.9265367316341829,0.04497751124437781,-0.46326836581709147,1115.018315018315,97.03259837964761,31.48104307281319,
1770985323172.6987,4.434782608695652,-6.163043478260869,1.9456521739130435,2.4631956912028725,-9.63016157989228,-0.40933572710951527,4026.373626373626,1801.4652014652013,1.0,5.015890033311637,199.36641221374043,-18.580152671755723,13.84732824427481,20.290076335877863,-0.9220389805097451,0.06746626686656672,-0.45727136431784104,1196.3369963369962,97.0269019895256,31.48104307281319,
1770985323192.2295,4.521739130434782,-6.293478260869565,1.9782608695652173,2.5014961101137043,-9.680430879712747,-0.3686415320167564,4051.282051282051,1831.5018315018315,1.0,5.015890033311637,199.36641221374043,-18.229007633587784,10.80916030534351,19.603053435114504,-0.9190404797601199,0.035982008995502246,-0.4497751124437781,1302.5641025641025,97.03259837964761,31.48104307281319,
1770985323211.761,4.521739130434782,-6.293478260869565,1.934782608695652,2.566128067025733,-9.802513464991023,-0.3518850987432675,4049.8168498168498,1833.6996336996335,1.0,5.020995264897705,199.16370106761562,-17.19083969465649,9.038167938931297,18.396946564885496,-0.9175412293853074,0.041979010494752625,-0.45727136431784104,1410.989010989011,97.03544657890721,31.48104307281319,
1770985323231.292,4.434782608695652,-6.25,1.8804347826086956,2.4847396768402152,-9.723518850987432,-0.44763614602034707,4041.0256410256407,1824.9084249084249,1.0,5.026100496483773,198.96140172676482,-15.129770992366412,7.083969465648854,16.412213740458014,-0.9145427286356821,0.050974512743628186,-0.46476761619190404,1493.7728937728937,97.02975018318706,31.48104307281319,
1770985323250.823,4.456521739130435,-6.228260869565217,1.8478260869565217,2.4560143626570916,-9.694793536804308,-0.5290245362058648,4049.8168498168498,1831.5018315018315,1.0,5.026100496483773,198.96140172676482,-12.870229007633588,0.9770992366412213,11.022900763358779,-0.9130434782608695,0.043478260869565216,-0.4482758620689655,1541.3919413919414,97.03259837964761,31.48104307281319,
1770985323270.3542,4.478260869565217,-6.25,1.858695652173913,2.5014961101137043,-9.690005984440454,-0.5026929982046678,4049.8168498168498,1833.6996336996335,1.0,5.03120572806984,198.7595129375951,-11.84732824427481,-1.9541984732824427,8.213740458015266,-0.9130434782608695,0.04947526236881559,-0.45727136431784104,1564.8351648351647,97.03259837964761,31.48104307281319,
1770985323289.8853,4.5,-6.293478260869565,1.9239130434782608,2.5014961101137043,-9.70915619389587,-0.4380610412926391,4048.3516483516482,1839.5604395604394,1.0,5.03120572806984,198.7595129375951,-11.435114503816793,-4.061068702290076,6.931297709923664,-0.9130434782608695,0.046476761619190406,-0.4512743628185907,1573.6263736263736,97.0269019895256,31.48104307281319,
1770985323309.4165,4.5,-6.33695652173913,1.8804347826086956,2.52064631956912,-9.80490724117295,-0.4883303411131059,4049.8168498168498,1835.8974358974358,1.0,5.03120572806984,198.7595129375951,-9.938931297709923,-5.465648854961832,6.061068702290076,-0.9085457271364318,0.041979010494752625,-0.4512743628185907,1551.6483516483515,97.0269019895256,31.48104307281319,
1770985323328.9475,4.467391304347826,-6.206521739130435,1.826086956521739,2.5014961101137043,-9.737881508078994,-0.5290245362058648,4024.9084249084244,1804.3956043956043,1.0,5.036310959655908,198.55803345159651,-7.755725190839694,-6.015267175572519,5.145038167938931,-0.9100449775112444,0.035982008995502246,-0.45277361319340326,1512.8205128205127,97.02975018318706,31.48104307281319,
1770985323348.4785,4.4021739130434785,-6.076086956521739,1.826086956521739,2.4536205864751643,-9.529622980251347,-0.5601436265709157,4049.8168498168498,1826.3736263736262,1.0,5.041416191241976,198.35696202531642,-6.473282442748092,-7.419847328244274,4.977099236641221,-0.9040479760119939,0.037481259370314844,-0.4497751124437781,1462.2710622710622,97.03259837964761,31.48104307281319,
1770985323368.0098,4.4021739130434785,-6.0,1.7934782608695652,2.410532615200479,-9.450628366247756,-0.5266307600239377,4049.8168498168498,1832.234432234432,1.0,5.041416191241976,198.35696202531642,-6.061068702290076,-9.221374045801527,4.381679389312977,-0.9025487256371814,0.05247376311844078,-0.46026986506746626,1413.9194139194137,97.0269019895256,31.48104307281319,
1770985323387.5408,4.423913043478261,-5.934782608695652,1.7826086956521738,2.4560143626570916,-9.393177737881508,-0.5625374027528426,4042.490842490842,1830.03663003663,1.0,5.046521422828044,198.1562974203338,-5.374045801526718,-10.213740458015266,3.9847328244274807,-0.9010494752623688,0.050974512743628186,-0.4512743628185907,1365.5677655677655,97.02975018318706,31.48104307281319,
1770985323407.072,4.380434782608695,-5.945652173913043,1.8152173913043477,2.41771394374626,-9.323758228605625,-0.5338120885697187,4049.8168498168498,1832.9670329670328,1.0,5.046521422828044,198.1562974203338,-5.435114503816794,-10.793893129770993,4.076335877862595,-0.9115442278860569,0.046476761619190406,-0.4497751124437781,1320.8791208791208,97.0382947809659,31.48104307281319,
1770985323426.603,4.315217391304348,-6.173913043478261,1.7608695652173914,2.341113105924596,-9.58228605625374,-0.5864751645721125,4049.8168498168498,1834.4322344322343,1.0,5.051626654414111,197.95603840323392,-5.190839694656488,-12.717557251908396,4.396946564885496,-0.9025487256371814,0.06446776611694152,-0.45577211394302847,1271.062271062271,97.03259837964761,31.48104307281319,
1770985323446.134,4.33695652173913,-6.173913043478261,1.6630434782608696,2.324356672651107,-9.651705565529623,-0.703770197486535,4049.8168498168498,1834.4322344322343,1.0,5.051626654414111,197.95603840323392,-3.129770992366412,-13.603053435114504,3.7709923664122136,-0.8995502248875562,0.034482758620689655,-0.4497751124437781,1240.2930402930401,97.03259837964761,31.48104307281319,
1770985323465.6653,4.326086956521739,-6.08695652173913,1.6739130434782608,2.3650508677438657,-9.560742070616397,-0.706163973668462,4049.8168498168498,1834.4322344322343,1.0,5.05673188600018,197.756183745583,-2.4122137404580153,-14.351145038167939,4.183206106870228,-0.9040479760119939,0.04497751124437781,-0.45277361319340326,1238.095238095238,97.03259837964761,31.48104307281319,
1770985323485.1963,4.315217391304348,-6.054347826086956,1.684782608695652,2.326750448833034,-9.476959904248952,-0.6750448833034112,4024.9084249084244,1804.3956043956043,1.0,5.05673188600018,197.756183745583,-2.946564885496183,-14.549618320610687,4.488549618320611,-0.9010494752623688,0.037481259370314844,-0.44377811094452774,1257.8754578754579,97.03544657890721,31.48104307281319,
1770985323504.7273,4.3478260869565215,-6.032608695652174,1.717391304347826,2.3722321962896467,-9.450628366247756,-0.6654697785757031,4051.282051282051,1832.9670329670328,1.0,5.05673188600018,197.756183745583,-3.0229007633587783,-13.389312977099236,5.083969465648854,-0.9025487256371814,0.04497751124437781,-0.43778110944527737,1276.1904761904761,97.02975018318706,31.48104307281319,
1770985323524.2583,4.326086956521739,-5.989130434782608,1.7282608695652173,2.343506882106523,-9.40754039497307,-0.6367444643925793,4049.8168498168498,1833.6996336996335,1.0,5.05673188600018,197.756183745583,-3.7709923664122136,-12.061068702290076,6.030534351145038,-0.8995502248875562,0.043478260869565216,-0.4422788605697151,1290.10989010989,97.03259837964761,31.48104307281319,
1770985323543.7896,4.25,-5.956521739130435,1.7282608695652173,2.2573309395571513,-9.397965290245361,-0.5936564931178935,4042.490842490842,1837.3626373626373,1.0,5.061837117586247,197.55673222390317,-4.33587786259542,-11.587786259541984,7.068702290076335,-0.896551724137931,0.050974512743628186,-0.45727136431784104,1319.4139194139193,97.02975018318706,31.48104307281319,
1770985323563.3208,4.119565217391305,-5.989130434782608,1.75,2.118491921005386,-9.412327947336923,-0.6319569120287253,4049.8168498168498,1835.164835164835,1.0,5.061837117586247,197.55673222390317,-4.351145038167939,-12.900763358778626,8.198473282442748,-0.9040479760119939,0.047976011994003,-0.43778110944527737,1399.2673992673992,97.02975018318706,31.48104307281319,
1770985323582.8518,4.467391304347826,-6.08695652173913,1.717391304347826,2.4560143626570916,-9.498503889886296,-0.6439257929383603,4049.8168498168498,1835.164835164835,1.0,5.066942349172315,197.35768261964733,-4.580152671755725,-12.305343511450381,7.877862595419847,-0.8995502248875562,0.043478260869565216,-0.43628185907046474,1520.8791208791208,97.02975018318706,31.48104307281319,
1770985323602.3828,4.445652173913043,-6.228260869565217,1.75,2.551765409934171,-9.577498503889887,-0.6008378216636744,4042.490842490842,1831.5018315018315,1.0,5.066942349172315,197.35768261964733,-3.7709923664122136,-10.15267175572519,9.740458015267174,-0.8935532233883058,0.04047976011994003,-0.44377811094452774,1661.5384615384614,97.03259837964761,31.48104307281319,
1770985323621.914,4.282608695652174,-6.228260869565217,1.7717391304347825,2.3842010771992816,-9.699581089168163,-0.5984440454817475,4043.9560439560437,1825.6410256410254,1.0,5.066942349172315,197.35768261964733,-1.8778625954198473,-10.15267175572519,10.290076335877862,-0.896551724137931,0.06746626686656672,-0.43928035982008995,1789.0109890109889,97.03259837964761,31.48104307281319,
1770985323641.445,4.358695652173913,-6.141304347826087,1.75,2.314781567923399,-9.618192698982645,-0.5888689407540395,4024.9084249084244,1802.197802197802,1.0,5.072047580758383,197.1590337191746,-0.9312977099236641,-10.335877862595419,10.091603053435113,-0.896551724137931,0.04947526236881559,-0.4407796101949025,1863.003663003663,97.03259837964761,31.48104307281319,
1770985323660.9763,4.3478260869565215,-6.119565217391304,1.7608695652173914,2.3530819868342308,-9.565529622980252,-0.6223818073010173,4049.8168498168498,1825.6410256410254,1.0,5.072047580758383,197.1590337191746,-0.6717557251908397,-10.961832061068701,8.82442748091603,-0.889055472263868,0.047976011994003,-0.4467766116941529,1860.8058608058607,97.0269019895256,31.48104307281319,
1770985323680.507,4.33695652173913,-6.260869565217391,1.6956521739130435,2.410532615200479,-9.65409934171155,-0.6128067025733094,4051.282051282051,1838.095238095238,1.0,5.072047580758383,197.1590337191746,-0.8396946564885496,-12.15267175572519,7.297709923664121,-0.8935532233883058,0.04047976011994003,-0.43778110944527737,1789.0109890109889,97.03544657890721,31.48104307281319,
1770985323700.0383,4.304347826086956,-6.228260869565217,1.5978260869565217,2.3530819868342308,-9.735487731897067,-0.7420706163973668,4042.490842490842,1832.234432234432,1.0,5.072047580758383,197.1590337191746,0.9923664122137404,-13.404580152671755,5.66412213740458,-0.889055472263868,0.06746626686656672,-0.4332833583208396,1676.1904761904761,97.03259837964761,31.48104307281319,
1770985323719.5696,4.391304347826087,-6.163043478260869,1.6304347826086956,2.360263315380012,-9.599042489527228,-0.7875523638539796,4021.978021978022,1796.3369963369962,1.0,5.072047580758383,197.1590337191746,0.4427480916030534,-13.419847328244273,3.068702290076336,-0.8920539730134932,0.04947526236881559,-0.4332833583208396,1557.5091575091574,97.0382947809659,31.48104307281319,
1770985323739.1006,4.4021739130434785,-6.206521739130435,1.6521739130434783,2.41771394374626,-9.618192698982645,-0.7779772591262717,4049.8168498168498,1823.4432234432234,1.0,5.07715281234445,196.96078431372547,-0.5343511450381679,-11.633587786259541,1.3435114503816794,-0.8875562218890555,0.03298350824587706,-0.44377811094452774,1454.212454212454,97.0382947809659,31.48104307281319,
1770985323758.6318,4.3478260869565215,-6.239130434782608,1.6521739130434783,2.36983842010772,-9.713943746259725,-0.7348892878515858,4048.3516483516482,1836.6300366300366,1.0,5.07715281234445,196.96078431372547,-1.0381679389312977,-9.648854961832061,0.32061068702290074,-0.8785607196401799,0.037481259370314844,-0.43778110944527737,1369.9633699633698,97.02975018318706,31.48104307281319,
1770985323778.1628,4.293478260869565,-6.1521739130434785,1.6195652173913042,2.331538001196888,-9.618192698982645,-0.7612208258527827,4049.8168498168498,1835.164835164835,1.0,5.07715281234445,196.96078431372547,-1.083969465648855,-7.526717557251908,-1.129770992366412,-0.8875562218890555,0.05997001499250375,-0.4452773613193403,1312.8205128205127,97.02975018318706,31.48104307281319,
1770985323797.6938,4.173913043478261,-6.08695652173913,1.5978260869565217,2.2238180730101735,-9.517654099341712,-0.7827648114901257,4032.234432234432,1809.5238095238094,1.0,5.082258043930518,196.76293319939728,-1.3435114503816794,-5.648854961832061,-1.4045801526717556,-0.8845577211394302,0.04497751124437781,-0.4257871064467766,1286.4468864468863,97.03259837964761,31.48104307281319,
1770985323817.225,4.141304347826087,-6.0978260869565215,1.5869565217391304,2.1448234590065827,-9.498503889886296,-0.7827648114901257,4049.8168498168498,1827.8388278388277,1.0,5.082258043930518,196.76293319939728,-1.984732824427481,-5.694656488549618,-2.16793893129771,-0.8830584707646176,0.05547226386806597,-0.4302848575712144,1280.5860805860805,97.0269019895256,31.48104307281319,
1770985323836.756,4.108695652173913,-6.043478260869565,1.5869565217391304,2.116098144823459,-9.491322561340514,-0.7923399162178336,4049.8168498168498,1832.234432234432,1.0,5.087363275516586,196.5654791771199,-1.5877862595419847,-5.587786259541985,-2.33587786259542,-0.889055472263868,0.05247376311844078,-0.4332833583208396,1298.9010989010987,97.02975018318706,31.48104307281319,
1770985323856.2874,4.0978260869565215,-5.923913043478261,1.641304347826087,2.0777977259126272,-9.393177737881508,-0.7540394973070018,4041.0256410256407,1824.1758241758241,1.0,5.087363275516586,196.5654791771199,-1.6793893129770991,-4.824427480916031,-2.4732824427480917,-0.8800599700149925,0.07196401799100449,-0.4452773613193403,1323.8095238095236,97.03259837964761,31.48104307281319,
1770985323875.8184,4.108695652173913,-5.891304347826087,1.641304347826087,2.108916816277678,-9.302214242968283,-0.7564332734889287,4048.3516483516482,1837.3626373626373,1.0,5.092468507102654,196.36842105263156,-2.916030534351145,-3.7557251908396947,-2.4885496183206106,-0.8830584707646176,0.046476761619190406,-0.43478260869565216,1347.985347985348,97.0269019895256,31.48104307281319,
1770985323895.3494,4.108695652173913,-5.923913043478261,1.5869565217391304,2.09934171154997,-9.32854578096948,-0.7971274685816876,4049.8168498168498,1835.164835164835,1.0,5.092468507102654,196.36842105263156,-4.381679389312977,-2.7022900763358777,-1.83206106870229,-0.8770614692653673,0.047976011994003,-0.4332833583208396,1367.032967032967,97.03259837964761,31.48104307281319,
1770985323914.8806,4.021739130434782,-5.934782608695652,1.5326086956521738,2.0179533213644523,-9.352483542788748,-0.8090963494913226,4046.8864468864467,1833.6996336996335,1.0,5.092468507102654,196.36842105263156,-5.022900763358779,-2.030534351145038,-1.0534351145038168,-0.8845577211394302,0.046476761619190406,-0.43478260869565216,1364.102564102564,97.02975018318706,31.48104307281319,
1770985323934.4116,4.010869565217392,-5.880434782608695,1.5543478260869565,1.9820466786355475,-9.28785158587672,-0.8378216636744464,4048.3516483516482,1839.5604395604394,1.0,5.092468507102654,196.36842105263156,-5.190839694656488,-2.1221374045801524,-0.6870229007633587,-0.8830584707646176,0.04947526236881559,-0.43628185907046474,1348.7179487179487,97.03259837964761,31.48104307281319,
1770985323953.9426,4.043478260869565,-5.815217391304348,1.5434782608695652,2.0107719928186714,-9.223219628964692,-0.8306403351286654,4032.234432234432,1810.989010989011,1.0,5.1026789702747894,195.97548774387192,-6.2748091603053435,-2.4885496183206106,-0.366412213740458,-0.8785607196401799,0.05397301349325337,-0.43928035982008995,1320.8791208791208,97.0269019895256,31.48104307281319,
1770985323973.474,4.0,-5.923913043478261,1.5434782608695652,2.0035906642728905,-9.295032914422501,-0.8641532016756434,4048.3516483516482,1833.6996336996335,1.0,5.1026789702747894,195.97548774387192,-7.2824427480916025,-2.427480916030534,0.6717557251908397,-0.8905547226386806,0.06746626686656672,-0.4287856071964018,1284.9816849816848,97.02975018318706,31.48104307281319,
1770985323993.005,4.021739130434782,-5.989130434782608,1.5108695652173914,1.9964093357271095,-9.402752842609216,-0.8641532016756434,4049.8168498168498,1833.6996336996335,1.0,5.107784201860857,195.77961019490255,-6.488549618320611,-3.5725190839694654,1.7404580152671756,-0.8905547226386806,0.038980509745127435,-0.43928035982008995,1248.3516483516482,97.03259837964761,31.48104307281319,
1770985324012.536,4.054347826086956,-5.978260869565217,1.5217391304347825,2.0394973070017954,-9.419509275882705,-0.8497905445840813,4041.0256410256407,1824.9084249084249,1.0,5.107784201860857,195.77961019490255,-6.412213740458015,-4.152671755725191,2.2442748091603053,-0.8755622188905547,0.0704647676161919,-0.45277361319340326,1230.7692307692307,97.0269019895256,31.48104307281319,
1770985324032.0671,4.08695652173913,-6.043478260869565,1.5978260869565217,2.061041292639138,-9.43147815679234,-0.8114901256732495,4049.8168498168498,1831.5018315018315,1.0,5.112889433446925,195.58412381427857,-6.5038167938931295,-3.8625954198473282,1.9694656488549618,-0.8800599700149925,0.07196401799100449,-0.4452773613193403,1236.6300366300366,97.0269019895256,31.48104307281319,
1770985324051.598,4.043478260869565,-6.021739130434782,1.6304347826086956,2.080191502094554,-9.438659485338121,-0.7803710353081986,4048.3516483516482,1839.5604395604394,1.0,5.117994665032993,195.38902743142143,-5.740458015267175,-4.595419847328244,1.3587786259541985,-0.8830584707646176,0.041979010494752625,-0.4302848575712144,1269.5970695970695,97.02975018318706,31.48104307281319,
1770985324071.1294,4.054347826086956,-6.021739130434782,1.6304347826086956,2.0347097546379413,-9.453022142429683,-0.7660083782166367,4048.3516483516482,1841.0256410256409,1.0,5.117994665032993,195.38902743142143,-6.3206106870229,-5.740458015267175,-0.07633587786259542,-0.881559220389805,0.05697151424287856,-0.43928035982008995,1309.89010989011,97.02975018318706,31.48104307281319,
1770985324090.6604,4.119565217391305,-6.032608695652174,1.6304347826086956,2.087372830640335,-9.460203470975463,-0.7468581687612208,4048.3516483516482,1841.7582417582416,1.0,5.12309989661906,195.19431988041853,-5.923664122137405,-6.900763358778626,-2.0,-0.8830584707646176,0.046476761619190406,-0.4407796101949025,1335.5311355311355,97.03259837964761,31.48104307281319,
1770985324110.1917,4.1521739130434785,-6.08695652173913,1.684782608695652,2.108916816277678,-9.476959904248952,-0.7396768402154399,4035.164835164835,1819.047619047619,1.0,5.128205128205129,195.0,-6.015267175572519,-6.824427480916031,-3.450381679389313,-0.8860569715142429,0.05697151424287856,-0.43628185907046474,1335.5311355311355,97.0382947809659,31.48104307281319,
1770985324129.723,4.184782608695652,-6.173913043478261,1.7608695652173914,2.1807301017354876,-9.570317175344105,-0.6558946738479952,4049.8168498168498,1830.03663003663,1.0,5.133310359791197,194.80606663351566,-6.65648854961832,-5.770992366412213,-3.83206106870229,-0.8770614692653673,0.050974512743628186,-0.43628185907046474,1323.076923076923,97.0269019895256,31.48104307281319,
1770985324149.2537,4.239130434782608,-6.1521739130434785,1.7608695652173914,2.2357869539198085,-9.61340514661879,-0.5888689407540395,4049.8168498168498,1832.9670329670328,1.0,5.138415591377265,194.61251862891206,-6.290076335877862,-3.9083969465648853,-4.931297709923664,-0.8875562218890555,0.047976011994003,-0.4302848575712144,1315.018315018315,97.03259837964761,31.48104307281319,
1770985324168.785,4.184782608695652,-6.032608695652174,1.7934782608695652,2.2022740873728304,-9.474566128067025,-0.5960502692998204,4042.490842490842,1830.7692307692307,1.0,5.138415591377265,194.61251862891206,-5.419847328244274,-2.5343511450381677,-5.66412213740458,-0.8740629685157421,0.06296851574212893,-0.424287856071964,1334.065934065934,97.0269019895256,31.48104307281319,
1770985324188.316,4.141304347826087,-5.956521739130435,1.826086956521739,2.152004787552364,-9.374027528426092,-0.5242369838420108,4021.978021978022,1796.3369963369962,1.0,5.143520822963333,194.41935483870967,-4.870229007633587,-2.0610687022900764,-6.595419847328244,-0.881559220389805,0.04047976011994003,-0.4302848575712144,1378.021978021978,97.02975018318706,31.48104307281319,
1770985324207.8472,4.228260869565217,-5.945652173913043,1.8695652173913042,2.190305206463196,-9.345302214242968,-0.5002992220227409,4051.282051282051,1830.03663003663,1.0,5.143520822963333,194.41935483870967,-4.717557251908397,-2.183206106870229,-8.65648854961832,-0.8785607196401799,0.05697151424287856,-0.43778110944527737,1432.9670329670328,97.02975018318706,31.48104307281319,
1770985324227.3782,4.228260869565217,-5.956521739130435,1.826086956521739,2.2357869539198085,-9.36684619988031,-0.4931178934769599,4049.8168498168498,1832.9670329670328,1.0,5.1486260545494,194.22657411998017,-3.3740458015267176,-2.7938931297709924,-9.587786259541984,-0.889055472263868,0.05247376311844078,-0.4302848575712144,1521.6117216117216,97.03259837964761,31.48104307281319,
1770985324246.9092,4.260869565217392,-5.956521739130435,1.8695652173913042,2.2501496110113703,-9.378815080789947,-0.5170556552962298,4043.9560439560437,1826.3736263736262,1.0,5.153731286135468,194.03417533432392,-2.229007633587786,-3.0534351145038165,-10.412213740458014,-0.8860569715142429,0.04497751124437781,-0.4332833583208396,1645.4212454212452,97.0269019895256,31.48104307281319,
1770985324266.4404,4.326086956521739,-6.043478260869565,1.826086956521739,2.343506882106523,-9.453022142429683,-0.5122681029323758,4026.373626373626,1797.8021978021977,1.0,5.158836517721535,193.8421573478476,-1.6335877862595418,-2.8396946564885495,-10.396946564885496,-0.881559220389805,0.043478260869565216,-0.43628185907046474,1762.6373626373625,97.0269019895256,31.48104307281319,
1770985324285.9714,4.380434782608695,-6.010869565217392,1.8478260869565217,2.4009575104727707,-9.460203470975463,-0.5409934171154996,4049.8168498168498,1824.1758241758241,1.0,5.163941749307603,193.65051903114187,-0.5038167938931297,-1.7862595419847327,-10.595419847328245,-0.8905547226386806,0.047976011994003,-0.4287856071964018,1836.6300366300366,97.03259837964761,31.48104307281319,
1770985324305.5027,4.434782608695652,-6.065217391304348,1.7934782608695652,2.4679832435667266,-9.47935368043088,-0.5745062836624776,4051.282051282051,1837.3626373626373,1.0,5.169046980893671,193.45925925925926,-0.24427480916030533,-0.5343511450381679,-10.946564885496183,-0.8845577211394302,0.035982008995502246,-0.42278860569715143,1860.07326007326,97.02975018318706,31.48104307281319,
1770985324325.0337,4.456521739130435,-6.195652173913043,1.7065217391304348,2.4703770197486534,-9.608617594254937,-0.6606822262118491,4041.0256410256407,1825.6410256410254,1.0,5.169046980893671,193.45925925925926,-0.1984732824427481,0.0916030534351145,-11.221374045801527,-0.8860569715142429,0.05847076461769115,-0.43478260869565216,1827.106227106227,97.02975018318706,31.48104307281319,
1770985324344.5647,4.554347826086956,-6.228260869565217,1.717391304347826,2.554159186116098,-9.687612208258528,-0.6702573309395571,4021.978021978022,1794.8717948717947,1.0,5.174152212479739,193.26837691169214,0.183206106870229,1.1908396946564885,-11.694656488549619,-0.881559220389805,0.050974512743628186,-0.43178410794602695,1753.113553113553,97.0269019895256,31.48104307281319,
1770985324364.096,4.630434782608695,-6.076086956521739,1.891304347826087,2.645122681029324,-9.563135846798325,-0.4955116696588869,4049.8168498168498,1823.4432234432234,1.0,5.179257444065807,193.0778708723509,0.3969465648854962,4.045801526717557,-12.320610687022901,-0.8950524737631184,0.046476761619190406,-0.43478260869565216,1657.8754578754579,97.03259837964761,31.48104307281319,
1770985324383.627,4.630434782608695,-5.869565217391304,1.9891304347826086,2.6858168761220824,-9.307001795332136,-0.3877917414721723,4046.8864468864467,1830.03663003663,1.0,5.184362675651874,192.8877400295421,-0.15267175572519084,8.351145038167939,-13.587786259541984,-0.8875562218890555,0.04497751124437781,-0.43478260869565216,1562.6373626373625,97.02975018318706,31.48104307281319,
1770985324403.158,4.489130434782608,-5.793478260869565,1.8478260869565217,2.558946738479952,-9.213644524236983,-0.5050867743865949,4051.282051282051,1839.5604395604394,1.0,5.189467907237941,192.69798327594688,-0.916030534351145,11.17557251908397,-15.954198473282442,-0.8905547226386806,0.04947526236881559,-0.43628185907046474,1484.2490842490843,97.02975018318706,31.48104307281319,
1770985324422.6892,4.423913043478261,-5.880434782608695,1.7608695652173914,2.4512268102932375,-9.278276481149012,-0.5792938360263316,4024.9084249084244,1805.8608058608058,1.0,5.189467907237941,192.69798327594688,-0.33587786259541985,11.282442748091603,-18.77862595419847,-0.8920539730134932,0.04947526236881559,-0.4407796101949025,1419.047619047619,97.02975018318706,31.48104307281319,
1770985324442.2202,4.260869565217392,-6.065217391304348,1.7934782608695652,2.2908438061041294,-9.476959904248952,-0.5505685218432076,4023.4432234432234,1790.4761904761904,1.0,5.194573138824009,192.5085995085995,0.9312977099236641,8.6412213740458,-20.671755725190838,-0.8905547226386806,0.07346326836581708,-0.424287856071964,1341.3919413919414,97.0240537986632,31.48104307281319,
1770985324461.7517,4.239130434782608,-6.217391304347826,1.7717391304347825,2.2477558348294435,-9.596648713345301,-0.5433871932974267,4049.8168498168498,1821.9780219780218,1.0,5.199678370410077,192.31958762886597,2.9923664122137406,3.6946564885496183,-21.923664122137403,-0.8860569715142429,0.06146926536731634,-0.4332833583208396,1279.120879120879,97.0269019895256,31.48104307281319,
1770985324481.2825,4.239130434782608,-6.163043478260869,1.75,2.2309994015559544,-9.687612208258528,-0.5792938360263316,4041.0256410256407,1821.245421245421,1.0,5.199678370410077,192.31958762886597,5.83206106870229,-0.7786259541984732,-21.81679389312977,-0.896551724137931,0.038980509745127435,-0.43178410794602695,1243.2234432234432,97.02975018318706,31.48104307281319,
1770985324500.8137,4.271739130434782,-6.130434782608695,1.6630434782608696,2.2214242968282467,-9.591861160981448,-0.687013764213046,4049.8168498168498,1831.5018315018315,1.0,5.204783601996146,192.13094654242275,6.854961832061068,-4.030534351145038,-20.931297709923662,-0.8935532233883058,0.04947526236881559,-0.43478260869565216,1248.3516483516482,97.03259837964761,31.48104307281319,
1770985324520.3447,4.326086956521739,-6.184782608695652,1.6304347826086956,2.302812687013764,-9.601436265709156,-0.7301017354877318,4049.8168498168498,1833.6996336996335,1.0,5.209888833582213,191.94267515923568,5.526717557251908,-6.106870229007633,-18.47328244274809,-0.9010494752623688,0.04497751124437781,-0.43478260869565216,1290.8424908424909,97.0240537986632,31.48104307281319,
1770985324539.8755,4.380434782608695,-6.130434782608695,1.608695652173913,2.341113105924596,-9.642130460801916,-0.7731897067624177,4048.3516483516482,1832.9670329670328,1.0,5.214994065168282,191.7547723935389,5.297709923664122,-7.145038167938931,-16.33587786259542,-0.9025487256371814,0.050974512743628186,-0.4332833583208396,1341.3919413919414,97.03259837964761,31.48104307281319,
1770985324559.407,4.456521739130435,-6.021739130434782,1.5543478260869565,2.4201077199281866,-9.505685218432076,-0.8138839018551766,4049.8168498168498,1833.6996336996335,1.0,5.220099296754349,191.56723716381418,4.442748091603053,-7.435114503816793,-14.366412213740457,-0.8995502248875562,0.043478260869565216,-0.4332833583208396,1401.4652014652013,97.03259837964761,31.48104307281319,
1770985324578.938,4.554347826086956,-5.923913043478261,1.5108695652173914,2.503889886295631,-9.369239976062238,-0.9048473967684021,4039.560439560439,1824.1758241758241,1.0,5.2252045283404165,191.3800683927699,2.6259541984732824,-5.465648854961832,-12.732824427480915,-0.9055472263868065,0.037481259370314844,-0.4407796101949025,1455.6776556776556,97.03259837964761,31.48104307281319,
1770985324598.469,4.619565217391305,-5.869565217391304,1.5108695652173914,2.649910233393178,-9.31897067624177,-0.9000598444045481,4048.3516483516482,1836.6300366300366,1.0,5.230309759926485,191.19326500732063,1.0381679389312977,-2.610687022900763,-11.022900763358779,-0.8995502248875562,0.05847076461769115,-0.4482758620689655,1495.970695970696,97.03259837964761,31.48104307281319,
1770985324618.0002,4.554347826086956,-5.815217391304348,1.5652173913043477,2.580490724117295,-9.237582286056254,-0.8713345302214243,4048.3516483516482,1840.2930402930401,1.0,5.230309759926485,191.19326500732063,-0.4427480916030534,0.8244274809160305,-9.740458015267174,-0.896551724137931,0.037481259370314844,-0.4467766116941529,1505.4945054945053,97.03259837964761,31.48104307281319,
1770985324637.5312,4.489130434782608,-5.804347826086956,1.576086956521739,2.542190305206463,-9.220825852782765,-0.8162776780371035,4041.0256410256407,1827.106227106227,1.0,5.2354149915125525,191.00682593856655,-2.0610687022900764,3.4198473282442747,-8.106870229007633,-0.8950524737631184,0.05247376311844078,-0.4467766116941529,1482.051282051282,97.03339288468196,31.4860680899641,
1770985324657.0625,4.413043478260869,-5.782608695652174,1.5978260869565217,2.4368641532016757,-9.153800119688809,-0.7851585876720526,4049.8168498168498,1832.234432234432,1.0,5.2405202230986205,190.82075012177302,-3.3435114503816794,4.442748091603053,-6.809160305343511,-0.9040479760119939,0.05247376311844078,-0.43928035982008995,1435.164835164835,97.03908933227436,31.4860680899641,
1770985324676.5935,4.434782608695652,-5.8478260869565215,1.5869565217391304,2.4272890484739675,-9.206463195691203,-0.8354278874925194,4048.3516483516482,1838.8278388278386,1.0,5.245625454684688,190.63503649635038,-5.2824427480916025,3.541984732824427,-5.221374045801526,-0.9085457271364318,0.050974512743628186,-0.4422788605697151,1382.4175824175823,97.03054466508442,31.4860680899641,
1770985324696.1245,4.489130434782608,-5.913043478260869,1.6195652173913042,2.4895272292040693,-9.261520047875523,-0.7875523638539796,4049.8168498168498,1835.8974358974358,1.0,5.245625454684688,190.63503649635038,-5.679389312977099,2.183206106870229,-3.9541984732824424,-0.8980509745127436,0.05247376311844078,-0.4407796101949025,1334.065934065934,97.03339288468196,31.4860680899641,
1770985324715.6558,4.543478260869565,-5.880434782608695,1.6630434782608696,2.561340514661879,-9.283064033512867,-0.7348892878515858,4049.8168498168498,1834.4322344322343,1.0,5.255835917856824,190.26469159786305,-6.641221374045801,2.0610687022900764,-1.8473282442748091,-0.8995502248875562,0.06896551724137931,-0.4332833583208396,1304.7619047619046,97.03908933227436,31.4860680899641,
1770985324735.1868,4.543478260869565,-5.815217391304348,1.6956521739130435,2.575703171753441,-9.223219628964692,-0.687013764213046,4024.9084249084244,1804.3956043956043,1.0,5.255835917856824,190.26469159786305,-7.022900763358779,3.068702290076336,0.8396946564885496,-0.8980509745127436,0.035982008995502246,-0.4467766116941529,1306.9597069597069,97.02769644828602,31.4860680899641,
1770985324754.718,4.58695652173913,-5.9021739130434785,1.717391304347826,2.6044284859365647,-9.271095152603232,-0.6535008976660682,4049.8168498168498,1826.3736263736262,1.0,5.260941149442892,190.08005822416303,-8.290076335877862,3.83206106870229,2.717557251908397,-0.8950524737631184,0.041979010494752625,-0.4422788605697151,1309.89010989011,97.03624110707861,31.4860680899641,
1770985324774.249,4.630434782608695,-6.065217391304348,1.7826086956521738,2.645122681029324,-9.481747456612807,-0.6032315978456014,4049.8168498168498,1832.234432234432,1.0,5.260941149442892,190.08005822416303,-9.877862595419847,4.534351145038168,4.809160305343512,-0.9055472263868065,0.04947526236881559,-0.4452773613193403,1309.1575091575091,97.03339288468196,31.4860680899641,
1770985324793.78,4.663043478260869,-6.054347826086956,1.8695652173913042,2.6858168761220824,-9.47935368043088,-0.48354278874925194,4039.560439560439,1823.4432234432234,1.0,5.266046381028959,189.8957828405235,-9.404580152671755,5.312977099236641,6.870229007633587,-0.896551724137931,0.05697151424287856,-0.43478260869565216,1331.8681318681317,97.03054466508442,31.4860680899641,
1770985324813.3113,4.630434782608695,-6.076086956521739,1.9021739130434783,2.6929982046678633,-9.491322561340514,-0.43087971274685816,4051.282051282051,1838.095238095238,1.0,5.271151612615027,189.71186440677965,-9.786259541984732,6.229007633587786,8.885496183206106,-0.9010494752623688,0.05247376311844078,-0.44377811094452774,1358.2417582417581,97.03624110707861,31.4860680899641,
1770985324832.8423,4.75,-6.206521739130435,1.9021739130434783,2.786355475763016,-9.644524236983841,-0.45242369838420105,4051.282051282051,1841.7582417582416,1.0,5.271151612615027,189.71186440677965,-10.839694656488549,6.916030534351145,9.908396946564885,-0.9055472263868065,0.046476761619190406,-0.4407796101949025,1397.8021978021977,97.03054466508442,31.4860680899641,
1770985324852.3733,4.793478260869565,-6.271739130434782,1.9565217391304348,2.8509874326750446,-9.730700179533214,-0.3997606223818073,4049.8168498168498,1836.6300366300366,1.0,5.276256844201095,189.52830188679246,-10.732824427480915,8.244274809160306,10.351145038167939,-0.8995502248875562,0.04047976011994003,-0.4332833583208396,1463.003663003663,97.03339288468196,31.4860680899641,
1770985324871.9043,4.739130434782608,-6.119565217391304,2.0217391304347827,2.783961699581089,-9.591861160981448,-0.31837223219628963,4043.9560439560437,1827.106227106227,1.0,5.281362075787163,189.3450942484292,-8.99236641221374,11.17557251908397,10.259541984732824,-0.8995502248875562,0.035982008995502246,-0.4422788605697151,1550.9157509157508,97.03339288468196,31.4860680899641,
1770985324891.4355,4.739130434782608,-6.108695652173913,2.032608695652174,2.79114302812687,-9.543985637342908,-0.31597845601436264,4045.421245421245,1830.7692307692307,1.0,5.281362075787163,189.3450942484292,-8.99236641221374,12.99236641221374,9.49618320610687,-0.8980509745127436,0.035982008995502246,-0.4422788605697151,1670.3296703296703,97.03339288468196,31.4860680899641,
1770985324910.9668,4.771739130434782,-6.206521739130435,2.0760869565217392,2.805505685218432,-9.611011370436865,-0.2848593656493118,4023.4432234432234,1797.069597069597,1.0,5.291572538959298,188.9797395079595,-9.81679389312977,14.335877862595419,8.244274809160306,-0.8995502248875562,0.038980509745127435,-0.4422788605697151,1816.117216117216,97.03054466508442,31.4860680899641,
1770985324930.4978,4.739130434782608,-6.163043478260869,2.0869565217391304,2.783961699581089,-9.673249551166966,-0.2585278276481149,4049.8168498168498,1824.1758241758241,1.0,5.296677770545366,188.7975903614458,-9.32824427480916,16.213740458015266,7.709923664122137,-0.8920539730134932,0.05697151424287856,-0.43778110944527737,1948.7179487179485,97.03339288468196,31.4860680899641,
1770985324950.0288,4.663043478260869,-6.043478260869565,2.130434782608696,2.7384799521244765,-9.536804308797127,-0.22740873728306402,4038.0952380952376,1814.6520146520145,1.0,5.296677770545366,188.7975903614458,-7.709923664122137,17.81679389312977,6.1679389312977095,-0.9025487256371814,0.06446776611694152,-0.44377811094452774,2029.3040293040292,97.03339288468196,31.4860680899641,
1770985324969.56,4.717391304347826,-6.065217391304348,2.152173913043478,2.7073608617594256,-9.443447037701974,-0.17953321364452424,4051.282051282051,1835.164835164835,1.0,5.296677770545366,188.7975903614458,-7.374045801526718,18.885496183206108,5.511450381679389,-0.9025487256371814,0.04947526236881559,-0.4467766116941529,2030.03663003663,97.02769644828602,31.4860680899641,
1770985324989.091,4.695652173913043,-6.195652173913043,2.0978260869565215,2.7695990424895274,-9.572710951526032,-0.19628964691801315,4051.282051282051,1841.0256410256409,1.0,5.301783002131434,188.61579200770342,-7.480916030534351,18.763358778625953,5.526717557251908,-0.9010494752623688,0.050974512743628186,-0.4482758620689655,1961.172161172161,97.02769644828602,31.4860680899641,
1770985325008.6223,4.619565217391305,-6.206521739130435,2.0652173913043477,2.7145421903052065,-9.63016157989228,-0.24895272292040693,4049.8168498168498,1835.8974358974358,1.0,5.306888233717502,188.43434343434345,-4.763358778625954,19.19083969465649,4.412213740458015,-0.896551724137931,0.034482758620689655,-0.4467766116941529,1839.5604395604394,97.03054466508442,31.4860680899641,
1770985325028.1533,4.5978260869565215,-6.228260869565217,2.043478260869565,2.6355475763016156,-9.704368641532017,-0.2824655894673848,4049.8168498168498,1835.164835164835,1.0,5.306888233717502,188.43434343434345,-2.610687022900763,18.213740458015266,3.3893129770992365,-0.9010494752623688,0.041979010494752625,-0.4407796101949025,1704.0293040293038,97.03054466508442,31.4860680899641,
1770985325047.6843,4.532608695652174,-6.141304347826087,2.010869565217391,2.609216038300419,-9.632555356074207,-0.29443447037701975,4046.8864468864467,1833.6996336996335,1.0,5.31199346530357,188.25324363286882,-0.061068702290076333,15.709923664122137,1.6335877862595418,-0.9055472263868065,0.046476761619190406,-0.44377811094452774,1561.9047619047617,97.03339288468196,31.4860680899641,
1770985325067.2156,4.510869565217392,-6.065217391304348,1.9456521739130435,2.556552962298025,-9.517654099341712,-0.38061041292639136,4023.4432234432234,1797.8021978021977,1.0,5.31199346530357,188.25324363286882,2.0610687022900764,13.389312977099236,0.24427480916030533,-0.9055472263868065,0.05697151424287856,-0.4482758620689655,1435.8974358974358,97.02769644828602,31.4860680899641,
1770985325086.7466,4.543478260869565,-5.978260869565217,1.8478260869565217,2.575703171753441,-9.438659485338121,-0.45960502692998206,4049.8168498168498,1824.1758241758241,1.0,5.31199346530357,188.25324363286882,2.8244274809160306,10.442748091603052,-1.0687022900763359,-0.8980509745127436,0.05547226386806597,-0.4512743628185907,1324.5421245421244,97.02769644828602,31.4860680899641,
1770985325106.2778,4.554347826086956,-5.956521739130435,1.8043478260869565,2.580490724117295,-9.364452423698385,-0.4931178934769599,4038.0952380952376,1814.6520146520145,1.0,5.317098696889637,188.0724915986558,4.045801526717557,8.977099236641221,-1.3282442748091603,-0.8995502248875562,0.06896551724137931,-0.4512743628185907,1230.7692307692307,97.03054466508442,31.4860680899641,
1770985325125.8088,4.543478260869565,-5.989130434782608,1.7065217391304348,2.585278276481149,-9.443447037701974,-0.6247755834829444,4049.8168498168498,1829.3040293040292,1.0,5.317098696889637,188.0724915986558,3.6030534351145036,8.442748091603054,-0.916030534351145,-0.9130434782608695,0.05847076461769115,-0.4482758620689655,1171.4285714285713,97.03339288468196,31.4860680899641,
1770985325145.3398,4.565217391304348,-5.880434782608695,1.6521739130434783,2.6044284859365647,-9.330939557151407,-0.7444643925792939,4049.8168498168498,1832.9670329670328,1.0,5.322203928475705,187.89208633093526,3.801526717557252,8.381679389312977,-0.7480916030534351,-0.9070464767616192,0.050974512743628186,-0.46476761619190404,1155.3113553113553,97.03339288468196,31.4860680899641,
1770985325164.871,4.608695652173913,-5.826086956521739,1.7391304347826086,2.6475164572112506,-9.213644524236983,-0.687013764213046,4046.8864468864467,1832.9670329670328,1.0,5.322203928475705,187.89208633093526,2.687022900763359,9.374045801526718,0.47328244274809156,-0.9040479760119939,0.047976011994003,-0.46026986506746626,1183.150183150183,97.03054466508442,31.4860680899641,
1770985325184.402,4.6521739130434785,-5.771739130434782,1.8152173913043477,2.6977857570317174,-9.182525433871932,-0.5840813883901855,4051.282051282051,1840.2930402930401,1.0,5.327309160061772,187.71202683277434,0.24427480916030533,11.343511450381678,1.618320610687023,-0.9070464767616192,0.05247376311844078,-0.46326836581709147,1234.4322344322343,97.03339288468196,31.4860680899641,
1770985325203.933,4.695652173913043,-5.771739130434782,1.8043478260869565,2.724117295032914,-9.163375224416518,-0.5481747456612807,4026.373626373626,1801.4652014652013,1.0,5.327309160061772,187.71202683277434,-2.030534351145038,13.206106870229007,2.030534351145038,-0.9175412293853074,0.05247376311844078,-0.46176911544227883,1284.2490842490843,97.03054466508442,31.4860680899641,
1770985325223.4644,4.684782608695652,-5.793478260869565,1.7717391304347825,2.7289048473967683,-9.199281867145421,-0.5601436265709157,4049.8168498168498,1824.9084249084249,1.0,5.327309160061772,187.71202683277434,-4.396946564885496,15.938931297709923,1.9694656488549618,-0.9070464767616192,0.05847076461769115,-0.45577211394302847,1327.4725274725274,97.03054466508442,31.4860680899641,
1770985325242.9954,4.630434782608695,-5.782608695652174,1.858695652173913,2.6858168761220824,-9.17773788150808,-0.5146618791143028,4048.3516483516482,1837.3626373626373,1.0,5.327309160061772,187.71202683277434,-4.900763358778626,17.297709923664122,0.7938931297709924,-0.9115442278860569,0.05997001499250375,-0.4542728635682159,1363.3699633699632,97.03339288468196,31.4860680899641,
1770985325262.5266,4.608695652173913,-5.858695652173913,1.9021739130434783,2.6594853381208856,-9.273488928785158,-0.4189108318372232,4033.6996336996335,1816.117216117216,1.0,5.327309160061772,187.71202683277434,-5.816793893129771,16.68702290076336,-0.9618320610687022,-0.9055472263868065,0.05697151424287856,-0.46026986506746626,1378.7545787545787,97.02769644828602,31.4860680899641,
1770985325282.0576,4.641304347826087,-5.989130434782608,2.010869565217391,2.6953919808497906,-9.41472172351885,-0.33273488928785155,4049.8168498168498,1829.3040293040292,1.0,5.33241439164784,187.53231211105793,-6.7328244274809155,16.183206106870227,-2.7938931297709924,-0.9115442278860569,0.047976011994003,-0.46476761619190404,1375.8241758241757,97.03339288468196,31.4860680899641,
1770985325301.5886,4.5978260869565215,-6.032608695652174,2.0652173913043477,2.6810293237582283,-9.438659485338121,-0.2728904847396768,4049.8168498168498,1832.9670329670328,1.0,5.33241439164784,187.53231211105793,-6.2748091603053435,16.12213740458015,-4.9465648854961835,-0.9145427286356821,0.07346326836581708,-0.46476761619190404,1370.6959706959706,97.03624110707861,31.4860680899641,
1770985325321.12,4.478260869565217,-5.945652173913043,2.0978260869565215,2.621184919210054,-9.388390185517654,-0.23937761819269898,4049.8168498168498,1833.6996336996335,1.0,5.337519623233908,187.3529411764706,-5.2824427480916025,15.755725190839694,-7.32824427480916,-0.9085457271364318,0.050974512743628186,-0.46476761619190404,1372.161172161172,97.03339288468196,31.4860680899641,
1770985325340.651,4.4021739130434785,-5.891304347826087,2.141304347826087,2.4536205864751643,-9.309395571514063,-0.20107719928186715,4049.8168498168498,1833.6996336996335,1.0,5.337519623233908,187.3529411764706,-4.870229007633587,14.885496183206106,-9.694656488549619,-0.9100449775112444,0.05247376311844078,-0.46176911544227883,1373.6263736263736,97.02769644828602,31.4860680899641,
1770985325360.182,4.3478260869565215,-5.923913043478261,2.1739130434782608,2.3961699581089166,-9.295032914422501,-0.14841412327947337,4046.8864468864467,1833.6996336996335,1.0,5.337519623233908,187.3529411764706,-4.152671755725191,11.81679389312977,-11.84732824427481,-0.9190404797601199,0.06146926536731634,-0.472263868065967,1372.161172161172,97.03054466508442,31.4860680899641,
1770985325379.7131,4.293478260869565,-5.956521739130435,2.1630434782608696,2.32196289646918,-9.350089766606821,-0.13165769000598443,4023.4432234432234,1797.8021978021977,1.0,5.337519623233908,187.3529411764706,-3.5877862595419847,7.7251908396946565,-14.076335877862595,-0.9175412293853074,0.05247376311844078,-0.46176911544227883,1367.032967032967,97.03054466508442,31.4860680899641,
1770985325399.244,4.239130434782608,-5.880434782608695,2.1956521739130435,2.2740873728306403,-9.333333333333334,-0.12926391382405744,4049.8168498168498,1824.1758241758241,1.0,5.337519623233908,187.3529411764706,-2.183206106870229,3.2671755725190836,-16.85496183206107,-0.9115442278860569,0.05547226386806597,-0.46926536731634183,1353.8461538461538,97.03339288468196,31.4860680899641,
1770985325418.7754,4.271739130434782,-5.804347826086956,2.1630434782608696,2.2429682824655894,-9.220825852782765,-0.1436265709156194,4035.164835164835,1813.186813186813,1.0,5.3426248548199755,187.17391304347828,-0.015267175572519083,-1.648854961832061,-19.679389312977097,-0.9190404797601199,0.04497751124437781,-0.4587706146926537,1342.1245421245421,97.03624110707861,31.4860680899641,
1770985325438.3064,4.260869565217392,-5.9021739130434785,2.130434782608696,2.2692998204667862,-9.275882704967085,-0.20586475164572113,4023.4432234432234,1791.9413919413919,1.0,5.3426248548199755,187.17391304347828,-0.5190839694656488,-5.022900763358779,-21.725190839694655,-0.9250374812593702,0.07196401799100449,-0.46926536731634183,1325.2747252747251,97.03054466508442,31.4860680899641,
1770985325457.8376,4.184782608695652,-5.9021739130434785,2.141304347826087,2.1998803111909035,-9.314183123877918,-0.1867145421903052,4051.282051282051,1829.3040293040292,1.0,5.3426248548199755,187.17391304347828,0.22900763358778625,-7.206106870229007,-22.47328244274809,-0.9220389805097451,0.05397301349325337,-0.45577211394302847,1309.1575091575091,97.03339288468196,31.4860680899641,
1770985325477.369,4.163043478260869,-5.858695652173913,2.1630434782608696,2.1759425493716336,-9.278276481149012,-0.17953321364452424,4048.3516483516482,1838.095238095238,1.0,5.3426248548199755,187.17391304347828,0.366412213740458,-9.083969465648854,-23.877862595419845,-0.9175412293853074,0.05397301349325337,-0.4677661169415292,1296.7032967032967,97.03054466508442,31.4860680899641,
1770985325496.8997,4.08695652173913,-5.83695652173913,2.0978260869565215,2.087372830640335,-9.239976062238181,-0.19389587073608616,4051.282051282051,1841.7582417582416,1.0,5.3426248548199755,187.17391304347828,-0.24427480916030533,-10.82442748091603,-23.801526717557252,-0.9190404797601199,0.05397301349325337,-0.4707646176911544,1272.5274725274724,97.03624110707861,31.4860680899641,
1770985325516.431,4.0978260869565215,-5.83695652173913,2.0978260869565215,2.073010173548773,-9.249551166965889,-0.24416517055655296,4049.8168498168498,1836.6300366300366,1.0,5.3426248548199755,187.17391304347828,-0.9923664122137404,-13.84732824427481,-23.557251908396946,-0.9145427286356821,0.04947526236881559,-0.46026986506746626,1254.9450549450548,97.02769644828602,31.4860680899641,
1770985325535.962,4.108695652173913,-5.923913043478261,2.0869565217391304,2.0658288450029922,-9.290245362058647,-0.24416517055655296,4049.8168498168498,1841.7582417582416,1.0,5.3426248548199755,187.17391304347828,-1.450381679389313,-15.98473282442748,-22.30534351145038,-0.9205397301349325,0.05397301349325337,-0.45577211394302847,1282.051282051282,97.03339288468196,31.4860680899641,
1770985325555.4932,4.206521739130435,-5.967391304347826,2.130434782608696,2.142429682824656,-9.35966487133453,-0.19868342309994014,4049.8168498168498,1836.6300366300366,1.0,5.3426248548199755,187.17391304347828,-1.7709923664122136,-17.48091603053435,-20.412213740458014,-0.9235382308845577,0.08245877061469264,-0.4767616191904048,1378.7545787545787,97.03339288468196,31.4860680899641,
1770985325575.0242,4.239130434782608,-6.032608695652174,2.119565217391304,2.2118491921005385,-9.409934171154998,-0.236983842010772,4033.6996336996335,1816.117216117216,1.0,5.347730086406044,186.99522673031026,-2.3053435114503817,-18.0,-17.740458015267176,-0.9355322338830584,0.035982008995502246,-0.46026986506746626,1535.5311355311355,97.02769644828602,31.4860680899641,
1770985325594.5552,4.391304347826087,-6.1521739130434785,2.0652173913043477,2.338719329742669,-9.55834829443447,-0.27767803710353084,4051.282051282051,1835.8974358974358,1.0,5.347730086406044,186.99522673031026,-3.1908396946564883,-16.85496183206107,-13.465648854961831,-0.9220389805097451,0.035982008995502246,-0.4707646176911544,1710.6227106227104,97.03339288468196,31.4860680899641,
1770985325614.0864,4.380434782608695,-5.989130434782608,2.0869565217391304,2.3842010771992816,-9.45541591861161,-0.2800718132854578,4051.282051282051,1841.0256410256409,1.0,5.347730086406044,186.99522673031026,-3.4045801526717554,-14.458015267175572,-9.877862595419847,-0.9265367316341829,0.046476761619190406,-0.45727136431784104,1855.6776556776556,97.02769644828602,31.4860680899641,
1770985325633.6174,4.3478260869565215,-5.771739130434782,2.1847826086956523,2.348294434470377,-9.192100538599641,-0.15559545182525433,4049.8168498168498,1836.6300366300366,1.0,5.347730086406044,186.99522673031026,-2.3053435114503817,-11.557251908396946,-6.351145038167939,-0.9310344827586207,0.047976011994003,-0.4497751124437781,1938.4615384615383,97.02928537341467,31.496118125139038,
1770985325653.1487,4.434782608695652,-5.858695652173913,2.217391304347826,2.4344703770197484,-9.213644524236983,-0.09096349491322561,4038.0952380952376,1818.3150183150183,1.0,5.347730086406044,186.99522673031026,-3.3893129770992365,-10.99236641221374,-3.5267175572519083,-0.9205397301349325,0.05547226386806597,-0.46326836581709147,1945.7875457875457,97.03498190235878,31.496118125139038,
1770985325672.6797,4.543478260869565,-5.967391304347826,2.1956521739130435,2.546977857570317,-9.388390185517654,-0.13165769000598443,4049.8168498168498,1830.03663003663,1.0,5.352835317992112,186.81688125894135,-4.244274809160305,-13.038167938931297,1.7557251908396947,-0.9295352323838081,0.047976011994003,-0.4587706146926537,1868.131868131868,97.03498190235878,31.496118125139038,
1770985325692.2107,4.608695652173913,-5.83695652173913,2.2065217391304346,2.625972471573908,-9.249551166965889,-0.09096349491322561,4049.8168498168498,1832.9670329670328,1.0,5.347730086406044,186.99522673031026,-2.396946564885496,-13.557251908396946,4.137404580152672,-0.9220389805097451,0.07346326836581708,-0.4497751124437781,1747.2527472527472,97.0321336364871,31.496118125139038,
1770985325711.742,4.706521739130435,-5.684782608695652,2.217391304347826,2.762417713943746,-9.077199281867145,-0.08617594254937164,4051.282051282051,1840.2930402930401,1.0,5.347730086406044,186.99522673031026,-2.6564885496183206,-13.16030534351145,6.931297709923664,-0.9205397301349325,0.038980509745127435,-0.45277361319340326,1621.9780219780218,97.02928537341467,31.496118125139038,
1770985325731.273,4.967391304347826,-5.771739130434782,2.2282608695652173,3.0041891083183723,-9.158587672052663,-0.09814482345900657,4032.234432234432,1810.989010989011,1.0,5.347730086406044,186.99522673031026,-3.3893129770992365,-11.358778625954198,9.755725190839694,-0.9175412293853074,0.06296851574212893,-0.45577211394302847,1498.9010989010987,97.0321336364871,31.496118125139038,
1770985325750.804,5.076086956521739,-5.826086956521739,2.1630434782608696,3.076002393776182,-9.220825852782765,-0.13405146618791142,4051.282051282051,1833.6996336996335,1.0,5.347730086406044,186.99522673031026,-2.3206106870229006,-7.0534351145038165,12.534351145038167,-0.9205397301349325,0.043478260869565216,-0.4512743628185907,1383.8827838827838,97.02928537341467,31.496118125139038,
1770985325770.3352,5.076086956521739,-5.771739130434782,2.1956521739130435,3.1382405745062836,-9.20885697187313,-0.12687013764213045,4051.282051282051,1840.2930402930401,1.0,5.347730086406044,186.99522673031026,-2.778625954198473,-2.7938931297709924,15.709923664122137,-0.9160419790104948,0.04047976011994003,-0.4452773613193403,1299.6336996336995,97.02928537341467,31.496118125139038,
1770985325789.8662,5.076086956521739,-5.673913043478261,2.2391304347826084,3.1526032315978454,-9.084380610412927,-0.13405146618791142,4049.8168498168498,1835.8974358974358,1.0,5.347730086406044,186.99522673031026,-3.3435114503816794,-0.2595419847328244,18.183206106870227,-0.9175412293853074,0.041979010494752625,-0.4542728635682159,1257.142857142857,97.03498190235878,31.496118125139038,
1770985325809.3977,5.108695652173913,-5.760869565217392,2.1847826086956523,3.1645721125074804,-9.077199281867145,-0.11011370436864153,4049.8168498168498,1834.4322344322343,1.0,5.347730086406044,186.99522673031026,-5.709923664122138,-0.0916030534351145,20.244274809160306,-0.9190404797601199,0.05847076461769115,-0.46026986506746626,1249.084249084249,97.02928537341467,31.496118125139038,
1770985325828.9285,5.119565217391304,-5.9021739130434785,2.141304347826087,3.2076600837821663,-9.275882704967085,-0.1699581089168163,4027.8388278388275,1806.5934065934064,1.0,5.347730086406044,186.99522673031026,-5.2824427480916025,-0.42748091603053434,21.175572519083968,-0.9115442278860569,0.06146926536731634,-0.46476761619190404,1270.3296703296703,97.02928537341467,31.496118125139038,
1770985325848.4597,5.206521739130435,-5.869565217391304,2.0978260869565215,3.279473369239976,-9.309395571514063,-0.22262118491921004,4049.8168498168498,1826.3736263736262,1.0,5.347730086406044,186.99522673031026,-4.748091603053435,-0.9770992366412213,20.0,-0.9100449775112444,0.038980509745127435,-0.4512743628185907,1326.7399267399267,97.03498190235878,31.496118125139038,
1770985325867.9907,5.260869565217392,-5.923913043478261,2.0978260869565215,3.3752244165170557,-9.299820466786356,-0.21543985637342908,4049.8168498168498,1832.234432234432,1.0,5.347730086406044,186.99522673031026,-5.145038167938931,-1.1450381679389312,17.404580152671755,-0.9070464767616192,0.043478260869565216,-0.4587706146926537,1400.7326007326005,97.02928537341467,31.496118125139038,
1770985325887.5215,5.391304347826087,-6.0978260869565215,2.119565217391304,3.4637941352483543,-9.467384799521245,-0.21783363255535607,4030.7692307692305,1813.186813186813,1.0,5.352835317992112,186.81688125894135,-6.1679389312977095,-1.3740458015267174,13.81679389312977,-0.9010494752623688,0.038980509745127435,-0.4512743628185907,1468.8644688644688,97.0321336364871,31.496118125139038,
1770985325907.053,5.369565217391304,-6.228260869565217,2.0760869565217392,3.552363853979653,-9.649311789347696,-0.23219628964691802,4021.978021978022,1791.2087912087911,1.0,5.352835317992112,186.81688125894135,-5.801526717557252,-0.9007633587786259,8.916030534351144,-0.9085457271364318,0.05397301349325337,-0.45277361319340326,1510.6227106227104,97.02928537341467,31.496118125139038,
1770985325926.584,5.282608695652174,-6.173913043478261,2.0869565217391304,3.4350688210652303,-9.666068222621185,-0.236983842010772,4049.8168498168498,1822.7106227106226,1.0,5.352835317992112,186.81688125894135,-5.2824427480916025,-1.0076335877862594,3.2213740458015265,-0.9100449775112444,0.05997001499250375,-0.45577211394302847,1529.6703296703295,97.03498190235878,31.496118125139038,
1770985325946.115,5.206521739130435,-6.0978260869565215,2.0978260869565215,3.3752244165170557,-9.563135846798325,-0.236983842010772,4046.8864468864467,1830.03663003663,1.0,5.3579405495781804,186.63887565507386,-4.916030534351145,-1.7709923664122136,-2.8091603053435112,-0.8995502248875562,0.06596701649175413,-0.4497751124437781,1544.3223443223442,97.03498190235878,31.496118125139038,
1770985325965.6462,5.1521739130434785,-6.119565217391304,2.152173913043478,3.281867145421903,-9.541591861160981,-0.1891083183722322,4049.8168498168498,1832.9670329670328,1.0,5.352835317992112,186.81688125894135,-4.8396946564885495,-2.946564885496183,-7.175572519083969,-0.9070464767616192,0.05847076461769115,-0.45727136431784104,1537.7289377289376,97.02928537341467,31.496118125139038,
1770985325985.1772,5.010869565217392,-6.141304347826087,2.141304347826087,3.104727707959306,-9.579892280071814,-0.13165769000598443,4026.373626373626,1799.9999999999998,1.0,5.3579405495781804,186.63887565507386,-4.183206106870228,-6.381679389312977,-10.916030534351144,-0.9070464767616192,0.050974512743628186,-0.4482758620689655,1508.4249084249084,97.02928537341467,31.496118125139038,
1770985326004.7085,4.956521739130435,-6.0978260869565215,2.0869565217391304,3.03770197486535,-9.570317175344105,-0.22262118491921004,4021.978021978022,1786.8131868131868,1.0,5.3579405495781804,186.63887565507386,-2.091603053435114,-9.862595419847327,-13.694656488549617,-0.9085457271364318,0.043478260869565216,-0.4497751124437781,1474.7252747252746,97.0321336364871,31.496118125139038,
1770985326024.2395,4.989130434782608,-5.913043478260869,2.043478260869565,3.047277079593058,-9.371633752244165,-0.2537402752842609,4049.8168498168498,1821.245421245421,1.0,5.3579405495781804,186.63887565507386,-0.4427480916030534,-10.106870229007633,-15.435114503816793,-0.8980509745127436,0.041979010494752625,-0.4542728635682159,1447.6190476190475,97.03498190235878,31.496118125139038,
1770985326043.7705,4.978260869565217,-5.760869565217392,2.0760869565217392,3.056852184320766,-9.180131657690005,-0.2752842609216038,4030.7692307692305,1809.5238095238094,1.0,5.3630457811642485,186.46120894811995,-0.47328244274809156,-8.381679389312977,-15.236641221374045,-0.9085457271364318,0.046476761619190406,-0.45277361319340326,1412.4542124542124,97.03498190235878,31.496118125139038,
1770985326063.3018,5.021739130434782,-5.793478260869565,2.119565217391304,3.0712148414123277,-9.165769000598443,-0.22980251346499103,4051.282051282051,1833.6996336996335,1.0,5.3630457811642485,186.46120894811995,-2.0763358778625953,-5.526717557251908,-14.320610687022901,-0.9070464767616192,0.06596701649175413,-0.44377811094452774,1370.6959706959706,97.0321336364871,31.496118125139038,
1770985326082.8328,4.978260869565217,-5.804347826086956,2.0652173913043477,3.054458408138839,-9.204069419509276,-0.2824655894673848,4049.8168498168498,1833.6996336996335,1.0,5.3630457811642485,186.46120894811995,-3.2213740458015265,-0.6870229007633587,-12.061068702290076,-0.9145427286356821,0.05697151424287856,-0.46026986506746626,1317.9487179487178,97.0321336364871,31.496118125139038,
1770985326102.364,4.934782608695652,-5.782608695652174,2.0,3.032914422501496,-9.204069419509276,-0.3542788749251945,4049.8168498168498,1834.4322344322343,1.0,5.368151012750316,186.28388017118405,-4.198473282442748,5.236641221374046,-8.977099236641221,-0.9085457271364318,0.047976011994003,-0.4512743628185907,1270.3296703296703,97.03498190235878,31.496118125139038,
1770985326121.895,4.923913043478261,-5.826086956521739,1.9782608695652173,2.999401555954518,-9.237582286056254,-0.38539796529024534,4049.8168498168498,1834.4322344322343,1.0,5.373256244336384,186.10688836104515,-5.49618320610687,10.396946564885496,-4.5038167938931295,-0.9055472263868065,0.05397301349325337,-0.4482758620689655,1229.3040293040292,97.03498190235878,31.496118125139038,
1770985326141.426,4.913043478260869,-5.782608695652174,1.9782608695652173,2.9682824655894673,-9.199281867145421,-0.36624775583482944,4049.8168498168498,1834.4322344322343,1.0,5.373256244336384,186.10688836104515,-5.572519083969466,14.778625954198473,-0.3511450381679389,-0.9085457271364318,0.04047976011994003,-0.4497751124437781,1218.3150183150183,97.0321336364871,31.496118125139038,
1770985326160.9573,4.967391304347826,-5.760869565217392,2.0217391304347827,3.023339317773788,-9.165769000598443,-0.3255535607420706,4023.4432234432234,1797.8021978021977,1.0,5.378361475922451,185.93023255813955,-7.145038167938931,18.47328244274809,2.8091603053435112,-0.9130434782608695,0.038980509745127435,-0.4587706146926537,1233.6996336996335,97.02928537341467,31.496118125139038,
1770985326180.4883,4.869565217391305,-5.815217391304348,2.0760869565217392,2.994614003590664,-9.189706762417714,-0.29443447037701975,4049.8168498168498,1824.9084249084249,1.0,5.383466707508519,185.7539118065434,-7.9541984732824424,20.519083969465647,4.564885496183206,-0.9085457271364318,0.05547226386806597,-0.4662668665667166,1254.9450549450548,97.03498190235878,31.496118125139038,
1770985326200.0193,4.880434782608695,-5.869565217391304,2.0760869565217392,2.9371633752244164,-9.237582286056254,-0.21783363255535607,4029.304029304029,1804.3956043956043,1.0,5.388571939094586,185.5779251539555,-8.687022900763358,20.16793893129771,4.65648854961832,-0.9205397301349325,0.05247376311844078,-0.44377811094452774,1276.923076923077,97.03498190235878,31.496118125139038,
1770985326219.5503,4.913043478260869,-5.945652173913043,2.0217391304347827,2.9730700179533214,-9.314183123877918,-0.26810293237582283,4051.282051282051,1832.9670329670328,1.0,5.388571939094586,185.5779251539555,-8.15267175572519,18.885496183206108,3.847328244274809,-0.9250374812593702,0.05697151424287856,-0.45577211394302847,1309.1575091575091,97.03498190235878,31.496118125139038,
1770985326239.0815,4.891304347826087,-5.956521739130435,2.0217391304347827,2.9587073608617596,-9.369239976062238,-0.29443447037701975,4051.282051282051,1840.2930402930401,1.0,5.393677170680654,185.4022716516801,-7.099236641221374,17.12977099236641,1.9389312977099236,-0.9175412293853074,0.05997001499250375,-0.45577211394302847,1369.9633699633698,97.0321336364871,31.496118125139038,
1770985326258.6128,4.869565217391305,-5.989130434782608,2.0978260869565215,2.9491322561340514,-9.42429682824656,-0.2537402752842609,4049.8168498168498,1835.8974358974358,1.0,5.393677170680654,185.4022716516801,-6.244274809160305,15.17557251908397,-1.5725190839694656,-0.9115442278860569,0.050974512743628186,-0.4512743628185907,1482.051282051282,97.04352671676895,31.496118125139038,
1770985326278.1438,4.869565217391305,-6.010869565217392,2.0543478260869565,2.9682824655894673,-9.453022142429683,-0.26570915619389585,4049.8168498168498,1835.164835164835,1.0,5.398782402266722,185.22695035460995,-5.66412213740458,13.48091603053435,-6.366412213740458,-0.9145427286356821,0.04497751124437781,-0.45727136431784104,1625.6410256410256,97.0321336364871,31.496118125139038,
1770985326297.6748,4.760869565217392,-6.010869565217392,2.0652173913043477,2.877318970676242,-9.460203470975463,-0.26092160383004187,4029.304029304029,1808.058608058608,1.0,5.403887633852789,185.0519603212093,-4.99236641221374,10.82442748091603,-10.931297709923664,-0.9160419790104948,0.047976011994003,-0.45277361319340326,1764.8351648351647,97.0321336364871,31.496118125139038,
1770985326317.206,4.641304347826087,-5.9021739130434785,2.0760869565217392,2.7217235188509874,-9.340514661879114,-0.21783363255535607,4051.282051282051,1833.6996336996335,1.0,5.408992865438858,184.87730061349694,-4.977099236641221,7.129770992366412,-14.076335877862595,-0.9250374812593702,0.06296851574212893,-0.46476761619190404,1858.6080586080584,97.02358885566734,31.496118125139038,
1770985326336.737,4.630434782608695,-5.880434782608695,2.0760869565217392,2.6523040095751047,-9.275882704967085,-0.26570915619389585,4049.8168498168498,1834.4322344322343,1.0,5.414098097024925,184.70297029702974,-4.931297709923664,2.6564885496183206,-16.458015267175572,-0.9145427286356821,0.047976011994003,-0.4512743628185907,1887.179487179487,97.0321336364871,31.496118125139038,
1770985326356.2683,4.5978260869565215,-5.891304347826087,1.9565217391304348,2.6283662477558347,-9.299820466786356,-0.36146020347097546,4029.304029304029,1807.3260073260071,1.0,5.414098097024925,184.70297029702974,-4.229007633587786,-1.0229007633587786,-17.114503816793892,-0.9190404797601199,0.05547226386806597,-0.45727136431784104,1830.7692307692307,97.02928537341467,31.496118125139038,
1770985326375.7993,4.58695652173913,-5.880434782608695,1.934782608695652,2.6044284859365647,-9.275882704967085,-0.4045481747456613,4051.282051282051,1832.9670329670328,1.0,5.419203328610993,184.52896844088556,-3.480916030534351,-3.847328244274809,-16.549618320610687,-0.9265367316341829,0.05397301349325337,-0.46026986506746626,1717.9487179487178,97.03783017102964,31.496118125139038,
1770985326395.3303,4.673913043478261,-5.804347826086956,1.967391304347826,2.6786355475763015,-9.242369838420107,-0.3782166367444644,4049.8168498168498,1833.6996336996335,1.0,5.424308560197062,184.35529411764708,-2.8091603053435112,-4.3206106870229,-14.687022900763358,-0.9190404797601199,0.05697151424287856,-0.45727136431784104,1582.4175824175823,97.02928537341467,31.496118125139038,
1770985326414.8616,4.663043478260869,-5.684782608695652,2.0,2.7001795332136447,-9.067624177139438,-0.3518850987432675,4049.8168498168498,1834.4322344322343,1.0,5.429413791783129,184.18194640338507,-4.030534351145038,-3.5267175572519083,-12.061068702290076,-0.9235382308845577,0.06746626686656672,-0.46926536731634183,1448.3516483516482,97.02928537341467,31.496118125139038,
1770985326434.3926,4.6521739130434785,-5.663043478260869,1.9782608695652173,2.669060442848594,-9.043686415320167,-0.3782166367444644,4049.8168498168498,1834.4322344322343,1.0,5.434519023369197,184.0089243776421,-5.877862595419847,-2.229007633587786,-9.068702290076336,-0.9250374812593702,0.037481259370314844,-0.46476761619190404,1331.8681318681317,97.02928537341467,31.496118125139038,
1770985326453.9238,4.717391304347826,-5.728260869565217,1.9130434782608696,2.7336923997606224,-9.117893476959903,-0.4045481747456613,4032.234432234432,1808.7912087912086,1.0,5.439624254955265,183.83622712341625,-7.7251908396946565,-0.6259541984732824,-6.0,-0.9205397301349325,0.035982008995502246,-0.4542728635682159,1226.3736263736264,97.02928537341467,31.496118125139038,
1770985326473.4548,4.739130434782608,-5.739130434782608,1.9021739130434783,2.7695990424895274,-9.18491921005386,-0.43087971274685816,4023.4432234432234,1791.2087912087911,1.0,5.444729486541332,183.6638537271449,-8.50381679389313,1.7251908396946565,-3.312977099236641,-0.9235382308845577,0.038980509745127435,-0.4587706146926537,1142.1245421245421,97.02928537341467,31.496118125139038,
1770985326492.9858,4.717391304347826,-5.815217391304348,1.9239130434782608,2.755236385397965,-9.218432076600838,-0.42848593656493117,4049.8168498168498,1821.9780219780218,1.0,5.449834718127402,183.4918032786885,-9.083969465648854,3.8167938931297707,-1.0381679389312977,-0.9190404797601199,0.04947526236881559,-0.45577211394302847,1101.8315018315018,97.02643711314141,31.496118125139038,
1770985326512.517,4.717391304347826,-5.8478260869565215,1.934782608695652,2.7767803710353083,-9.242369838420107,-0.43327348892878514,4029.304029304029,1803.6630036630036,1.0,5.460045181299537,183.148667601683,-9.893129770992367,4.6106870229007635,0.183206106870229,-0.9265367316341829,0.04947526236881559,-0.4467766116941529,1123.8095238095236,97.0321336364871,31.496118125139038,
1770985326532.048,4.739130434782608,-5.923913043478261,1.934782608695652,2.7887492519449433,-9.33572710951526,-0.41412327947336924,4023.4432234432234,1782.4175824175823,1.0,5.465150412885605,182.97758056982715,-10.381679389312977,4.65648854961832,1.7099236641221374,-0.9280359820089955,0.046476761619190406,-0.46176911544227883,1183.8827838827838,97.02928537341467,31.496118125139038,
1770985326551.579,4.75,-6.010869565217392,1.9239130434782608,2.803111909036505,-9.429084380610412,-0.41651705565529623,4049.8168498168498,1819.7802197802196,1.0,5.470255644471672,182.80681287914138,-10.748091603053435,4.183206106870228,3.2671755725190836,-0.9250374812593702,0.06146926536731634,-0.45577211394302847,1265.9340659340658,97.02928537341467,31.496118125139038,
1770985326571.1104,4.826086956521739,-6.0,1.9565217391304348,2.8438061041292637,-9.429084380610412,-0.3949730700179533,4048.3516483516482,1835.8974358974358,1.0,5.47536087605774,182.63636363636363,-10.549618320610687,3.8625954198473282,4.33587786259542,-0.9205397301349325,0.05247376311844078,-0.4512743628185907,1345.054945054945,97.02928537341467,31.496118125139038,
1770985326590.6414,4.826086956521739,-5.934782608695652,1.967391304347826,2.889287851585877,-9.369239976062238,-0.38061041292639136,4048.3516483516482,1840.2930402930401,1.0,5.480466107643808,182.4662319515603,-10.564885496183205,4.076335877862595,4.65648854961832,-0.9250374812593702,0.05697151424287856,-0.46026986506746626,1410.989010989011,97.0321336364871,31.496118125139038,
1770985326610.1726,4.83695652173913,-5.9021739130434785,1.9239130434782608,2.8964691801316578,-9.338120885697187,-0.41172950329144226,4049.8168498168498,1836.6300366300366,1.0,5.485571339229876,182.29641693811072,-11.083969465648854,4.061068702290076,5.3893129770992365,-0.9175412293853074,0.046476761619190406,-0.44377811094452774,1458.6080586080584,97.02643711314141,31.496118125139038,
1770985326629.7036,4.880434782608695,-5.923913043478261,1.934782608695652,2.9251944943147814,-9.323758228605625,-0.3973668461998803,4021.978021978022,1797.8021978021977,1.0,5.4906765708159435,182.12691771269175,-12.106870229007633,4.534351145038168,5.32824427480916,-0.9295352323838081,0.06146926536731634,-0.4587706146926537,1483.5164835164835,97.0240537986632,31.48104307281319,
1770985326649.2346,4.913043478260869,-5.934782608695652,1.9891304347826086,2.9802513464991023,-9.381208856971872,-0.3710353081986834,4048.3516483516482,1830.03663003663,1.0,5.4957818024020115,181.9577333952624,-12.122137404580153,5.938931297709924,5.419847328244274,-0.9280359820089955,0.050974512743628186,-0.4497751124437781,1479.8534798534797,97.0269019895256,31.48104307281319,
1770985326668.766,4.934782608695652,-5.945652173913043,1.9891304347826086,2.9730700179533214,-9.364452423698385,-0.3494913225613405,4029.304029304029,1805.8608058608058,1.0,5.4957818024020115,181.9577333952624,-12.458015267175572,7.419847328244274,5.755725190839694,-0.9220389805097451,0.047976011994003,-0.4512743628185907,1445.4212454212454,97.02975018318706,31.48104307281319,
1770985326688.2969,4.923913043478261,-5.913043478260869,1.9891304347826086,3.001795332136445,-9.342908438061041,-0.3016157989228007,4051.282051282051,1832.9670329670328,1.0,5.50088703398808,181.7888631090487,-12.885496183206106,9.450381679389313,6.809160305343511,-0.9175412293853074,0.050974512743628186,-0.45277361319340326,1408.058608058608,97.03259837964761,31.48104307281319,
1770985326707.828,4.945652173913043,-5.880434782608695,2.0543478260869565,3.0281268701376423,-9.316576900059845,-0.3016157989228007,4049.8168498168498,1833.6996336996335,1.0,5.5059922655741484,181.62030598052849,-12.625954198473282,10.885496183206106,8.045801526717558,-0.9220389805097451,0.04497751124437781,-0.45577211394302847,1374.3589743589744,97.03259837964761,31.48104307281319,
1770985326727.3591,4.913043478260869,-5.804347826086956,2.0543478260869565,2.9850388988629564,-9.242369838420107,-0.26331538001196886,4048.3516483516482,1839.5604395604394,1.0,5.511097497160216,181.45206113941637,-12.213740458015266,12.167938931297709,8.885496183206106,-0.9235382308845577,0.05997001499250375,-0.45577211394302847,1350.9157509157508,97.02975018318706,31.48104307281319,
1770985326746.89,4.967391304347826,-5.782608695652174,2.119565217391304,2.999401555954518,-9.192100538599641,-0.22740873728306402,4049.8168498168498,1835.8974358974358,1.0,5.516202728746284,181.28412771864876,-12.290076335877862,12.67175572519084,9.404580152671755,-0.9190404797601199,0.041979010494752625,-0.46476761619190404,1332.6007326007325,97.03259837964761,31.48104307281319,
1770985326766.4214,4.989130434782608,-5.83695652173913,2.0978260869565215,3.056852184320766,-9.21603830041891,-0.236983842010772,4051.282051282051,1841.0256410256409,1.0,5.516202728746284,181.28412771864876,-12.48854961832061,13.007633587786259,9.770992366412214,-0.9115442278860569,0.04497751124437781,-0.45727136431784104,1312.8205128205127,97.03259837964761,31.48104307281319,
1770985326785.9524,5.010869565217392,-5.9021739130434785,2.0760869565217392,3.080789946140036,-9.299820466786356,-0.236983842010772,4049.8168498168498,1836.6300366300366,1.0,5.521307960332352,181.1165048543689,-12.091603053435113,13.374045801526718,9.17557251908397,-0.9250374812593702,0.05997001499250375,-0.45277361319340326,1304.7619047619046,97.03259837964761,31.48104307281319,
1770985326805.4836,5.032608695652174,-5.956521739130435,1.9891304347826086,3.104727707959306,-9.362058647516458,-0.3064033512866547,4051.282051282051,1841.0256410256409,1.0,5.52641319191842,180.9491916859122,-11.66412213740458,14.213740458015266,8.65648854961832,-0.9280359820089955,0.050974512743628186,-0.4452773613193403,1308.4249084249084,97.0269019895256,31.48104307281319,
1770985326825.0146,5.076086956521739,-6.032608695652174,1.9782608695652173,3.1262716935966486,-9.450628366247756,-0.3518850987432675,4029.304029304029,1809.5238095238094,1.0,5.52641319191842,180.9491916859122,-11.541984732824426,15.526717557251908,7.8473282442748085,-0.9235382308845577,0.05397301349325337,-0.4587706146926537,1309.1575091575091,97.0269019895256,31.48104307281319,
1770985326844.5457,5.065217391304348,-6.021739130434782,2.0217391304347827,3.1549970077797727,-9.46259724715739,-0.3231597845601436,4023.4432234432234,1791.2087912087911,1.0,5.531518423504487,180.7821873557914,-10.748091603053435,17.725190839694655,7.679389312977099,-0.9295352323838081,0.043478260869565216,-0.4482758620689655,1313.5531135531135,97.0269019895256,31.48104307281319,
1770985326864.077,5.043478260869565,-5.934782608695652,2.0,3.1454219030520645,-9.354877318970676,-0.31837223219628963,4051.282051282051,1828.5714285714284,1.0,5.531518423504487,180.7821873557914,-10.534351145038167,19.587786259541986,6.961832061068702,-0.9190404797601199,0.04497751124437781,-0.4512743628185907,1321.6117216117216,97.02975018318706,31.48104307281319,
1770985326883.608,5.010869565217392,-5.945652173913043,2.0,3.104727707959306,-9.357271095152603,-0.3375224416517056,4049.8168498168498,1832.9670329670328,1.0,5.536623655090554,180.61549100968188,-11.358778625954198,20.9618320610687,6.778625954198473,-0.9235382308845577,0.05847076461769115,-0.46026986506746626,1329.6703296703297,97.02975018318706,31.48104307281319,
1770985326903.1392,4.989130434782608,-5.978260869565217,1.9782608695652173,3.1023339317773786,-9.412327947336923,-0.3710353081986834,4051.282051282051,1840.2930402930401,1.0,5.541728886676622,180.44910179640718,-11.236641221374045,21.84732824427481,5.847328244274809,-0.9250374812593702,0.05547226386806597,-0.46176911544227883,1343.5897435897434,97.03544657890721,31.48104307281319,
1770985326922.6702,5.0,-5.934782608695652,1.9782608695652173,3.0831837223219627,-9.36684619988031,-0.3686415320167564,4038.0952380952376,1819.047619047619,1.0,5.54683411826269,180.2830188679245,-10.274809160305344,23.053435114503817,4.534351145038168,-0.9235382308845577,0.05697151424287856,-0.46176911544227883,1371.4285714285713,97.03259837964761,31.48104307281319,
1770985326942.2012,5.010869565217392,-5.8478260869565215,1.9891304347826086,3.076002393776182,-9.259126271693596,-0.33273488928785155,4049.8168498168498,1830.7692307692307,1.0,5.54683411826269,180.2830188679245,-9.16030534351145,24.16793893129771,3.0229007633587783,-0.9220389805097451,0.05247376311844078,-0.4587706146926537,1432.2344322344322,97.0269019895256,31.48104307281319,
1770985326961.7324,4.978260869565217,-5.75,2.0,3.044883303411131,-9.149012567324954,-0.3399162178336326,4051.282051282051,1839.5604395604394,1.0,5.551939349848757,180.11724137931034,-8.900763358778626,25.32824427480916,1.8015267175572518,-0.9265367316341829,0.08545727136431784,-0.46476761619190404,1514.2857142857142,97.03259837964761,31.48104307281319,
1770985326981.2634,4.923913043478261,-5.695652173913043,2.0,3.018551765409934,-9.11310592459605,-0.34230999401555956,4027.8388278388275,1808.058608058608,1.0,5.557044581434826,179.95176848874596,-8.625954198473282,26.748091603053435,0.7175572519083969,-0.9205397301349325,0.04947526236881559,-0.46026986506746626,1589.0109890109889,97.03544657890721,31.48104307281319,
1770985327000.795,4.9021739130434785,-5.923913043478261,1.891304347826087,2.963494913225613,-9.302214242968283,-0.42848593656493117,4051.282051282051,1833.6996336996335,1.0,5.562149813020893,179.78659935750343,-9.007633587786259,26.885496183206104,0.8396946564885496,-0.9310344827586207,0.04047976011994003,-0.46476761619190404,1636.6300366300366,97.03544657890721,31.48104307281319,
1770985327020.3257,4.880434782608695,-6.293478260869565,1.7717391304347825,2.9132256134051464,-9.759425493716337,-0.5553560742070617,4051.282051282051,1840.2930402930401,1.0,5.562149813020893,179.78659935750343,-9.618320610687023,25.64885496183206,0.9618320610687022,-0.9265367316341829,0.05547226386806597,-0.46176911544227883,1654.212454212454,97.03259837964761,31.48104307281319,
1770985327039.8567,4.9021739130434785,-6.608695652173913,1.7282608695652173,2.9228007181328546,-9.967684021543985,-0.6175942549371634,4049.8168498168498,1835.8974358974358,1.0,5.567255044606961,179.6217331499312,-8.854961832061068,24.15267175572519,2.183206106870229,-0.9340329835082458,0.05247376311844078,-0.46026986506746626,1642.4908424908424,97.03259837964761,31.48104307281319,
1770985327059.388,5.021739130434782,-6.478260869565217,1.7826086956521738,3.011370436864153,-10.125673249551166,-0.6032315978456014,4049.8168498168498,1835.164835164835,1.0,5.57236027619303,179.4571690334402,-6.763358778625954,24.62595419847328,2.9618320610687023,-0.9295352323838081,0.04947526236881559,-0.46176911544227883,1613.186813186813,97.02975018318706,31.48104307281319,
1770985327078.919,5.119565217391304,-6.0978260869565215,1.7717391304347825,3.1765409934171154,-9.728306403351286,-0.5816876122082585,4039.560439560439,1824.1758241758241,1.0,5.577465507779097,179.2929061784897,-5.603053435114504,27.038167938931295,3.5114503816793894,-0.9310344827586207,0.04947526236881559,-0.46476761619190404,1586.8131868131868,97.03259837964761,31.48104307281319,
1770985327098.45,5.076086956521739,-5.8478260869565215,1.7608695652173914,3.2124476361460204,-9.333333333333334,-0.5721125074805505,4049.8168498168498,1831.5018315018315,1.0,5.582570739365165,179.12894375857337,-6.977099236641221,31.81679389312977,3.969465648854962,-0.9370314842578711,0.06596701649175413,-0.4662668665667166,1571.4285714285713,97.03544657890721,31.48104307281319,
1770985327117.9812,4.978260869565217,-5.695652173913043,1.6956521739130435,3.1119090365050868,-9.134649910233392,-0.6678635547576302,4049.8168498168498,1833.6996336996335,1.0,5.582570739365165,179.12894375857337,-8.259541984732824,36.10687022900763,3.236641221374046,-0.9220389805097451,0.047976011994003,-0.472263868065967,1518.6813186813185,97.02975018318706,31.48104307281319,
1770985327137.5122,4.945652173913043,-5.608695652173913,1.6630434782608696,3.049670855774985,-9.03411131059246,-0.7109515260323159,4027.8388278388275,1805.8608058608058,1.0,5.5927812025373,178.80191693290735,-8.381679389312977,38.76335877862595,0.16793893129770993,-0.9310344827586207,0.043478260869565216,-0.46926536731634183,1434.4322344322343,97.03259837964761,31.48104307281319,
1770985327157.0437,4.717391304347826,-5.532608695652174,1.7065217391304348,2.8964691801316578,-8.93836026331538,-0.6918013165769,4051.282051282051,1832.9670329670328,1.0,5.5927812025373,178.80191693290735,-7.908396946564885,38.50381679389313,-2.595419847328244,-0.9385307346326837,0.046476761619190406,-0.48875562218890556,1343.5897435897434,97.0269019895256,31.48104307281319,
1770985327176.5745,4.641304347826087,-5.489130434782608,1.75,2.7289048473967683,-8.86654697785757,-0.6247755834829444,4049.8168498168498,1833.6996336996335,1.0,5.597886434123368,178.63885088919287,-7.511450381679389,36.48854961832061,-5.801526717557252,-0.9430284857571214,0.05247376311844078,-0.48575712143928035,1271.062271062271,97.02975018318706,31.48104307281319,
1770985327196.1057,4.565217391304348,-5.5978260869565215,1.7608695652173914,2.6355475763016156,-8.907241172950329,-0.6487133453022143,4048.3516483516482,1839.5604395604394,1.0,5.597886434123368,178.63885088919287,-7.8473282442748085,32.88549618320611,-9.633587786259541,-0.9355322338830584,0.06296851574212893,-0.48575712143928035,1218.3150183150183,97.03259837964761,31.48104307281319,
1770985327215.6367,4.445652173913043,-5.83695652173913,1.6630434782608696,2.527827648114901,-9.146618791143029,-0.6894075403949731,4049.8168498168498,1835.8974358974358,1.0,5.597886434123368,178.63885088919287,-7.938931297709924,28.80916030534351,-12.290076335877862,-0.9460269865067465,0.05847076461769115,-0.4872563718140929,1180.2197802197802,97.0269019895256,31.48104307281319,
1770985327235.1675,4.304347826086956,-5.945652173913043,1.576086956521739,2.381807301017355,-9.314183123877918,-0.7468581687612208,4048.3516483516482,1839.5604395604394,1.0,5.597886434123368,178.63885088919287,-6.229007633587786,23.083969465648853,-15.48091603053435,-0.9430284857571214,0.05997001499250375,-0.48425787106446777,1157.5091575091574,97.03259837964761,31.48104307281319,
1770985327254.699,4.195652173913043,-6.010869565217392,1.5434782608695652,2.2477558348294435,-9.40754039497307,-0.8234590065828845,4048.3516483516482,1841.7582417582416,1.0,5.597886434123368,178.63885088919287,-3.7404580152671754,16.030534351145036,-17.801526717557252,-0.9505247376311844,0.041979010494752625,-0.48275862068965514,1156.0439560439559,97.02975018318706,31.48104307281319,
1770985327274.23,4.163043478260869,-6.108695652173913,1.467391304347826,2.1687612208258527,-9.500897666068223,-0.9120287253141831,4048.3516483516482,1841.7582417582416,1.0,5.602991665709436,178.4760820045558,-2.1374045801526718,7.557251908396946,-19.389312977099237,-0.9475262368815592,0.0704647676161919,-0.4962518740629685,1159.7069597069597,97.0382947809659,31.48104307281319,
1770985327293.761,4.1521739130434785,-6.076086956521739,1.3695652173913042,2.17115499700778,-9.546379413524836,-0.9814482345900658,4026.373626373626,1801.4652014652013,1.0,5.602991665709436,178.4760820045558,-0.3969465648854962,-0.9465648854961831,-20.65648854961832,-0.9460269865067465,0.04947526236881559,-0.4917541229385307,1166.3003663003662,97.03259837964761,31.48104307281319,
1770985327313.2922,4.163043478260869,-5.858695652173913,1.315217391304348,2.17115499700778,-9.32854578096948,-1.0628366247755834,4021.978021978022,1787.5457875457873,1.0,5.602991665709436,178.4760820045558,2.1221374045801524,-8.564885496183205,-21.12977099236641,-0.9535232383808095,0.05997001499250375,-0.4977511244377811,1168.4981684981685,97.03259837964761,31.48104307281319,
1770985327332.8232,4.25,-5.695652173913043,1.2717391304347825,2.2238180730101735,-9.101137043686416,-1.1178934769599043,4048.3516483516482,1827.106227106227,1.0,5.602991665709436,178.4760820045558,1.7099236641221374,-14.335877862595419,-20.748091603053435,-0.9490254872563718,0.05247376311844078,-0.4947526236881559,1161.1721611721612,97.02975018318706,31.48104307281319,
1770985327352.3545,4.293478260869565,-5.663043478260869,1.2608695652173914,2.3052064631956912,-9.048473967684021,-1.172950329144225,4046.8864468864467,1831.5018315018315,1.0,5.608096897295503,178.31360946745562,0.0916030534351145,-17.603053435114504,-18.748091603053435,-0.952023988005997,0.05847076461769115,-0.4917541229385307,1143.5897435897434,97.02975018318706,31.48104307281319,
1770985327371.8855,4.3478260869565215,-5.641304347826087,1.2173913043478262,2.338719329742669,-9.007779772591263,-1.189706762417714,4023.4432234432234,1797.069597069597,1.0,5.602991665709436,178.4760820045558,-1.9541984732824427,-17.96946564885496,-15.297709923664122,-0.9460269865067465,0.05247376311844078,-0.4917541229385307,1116.4835164835165,97.03259837964761,31.48104307281319,
1770985327391.4165,4.358695652173913,-5.510869565217392,1.2282608695652173,2.3770197486535007,-8.902453620586474,-1.1944943147815679,4041.0256410256407,1814.6520146520145,1.0,5.608096897295503,178.31360946745562,-4.152671755725191,-15.938931297709923,-11.007633587786259,-0.944527736131934,0.06446776611694152,-0.48875562218890556,1095.970695970696,97.02975018318706,31.48104307281319,
1770985327410.9478,4.5,-5.478260869565217,1.2282608695652173,2.4799521244763616,-8.830640335128665,-1.180131657690006,4020.5128205128203,1785.3479853479853,1.0,5.608096897295503,178.31360946745562,-6.900763358778626,-11.297709923664122,-6.946564885496183,-0.9580209895052474,0.06896551724137931,-0.49025487256371814,1079.120879120879,97.03259837964761,31.48104307281319,
1770985327430.4788,4.554347826086956,-5.434782608695652,1.2934782608695652,2.556552962298025,-8.768402154398563,-1.1250748055056852,4049.8168498168498,1821.245421245421,1.0,5.613202128881572,178.1514324693042,-8.870229007633588,-5.32824427480916,-1.3282442748091603,-0.9505247376311844,0.06146926536731634,-0.4917541229385307,1083.5164835164835,97.0269019895256,31.48104307281319,
1770985327450.01,4.510869565217392,-5.445652173913043,1.3695652173913042,2.5254338719329743,-8.78755236385398,-1.0436864153201675,4027.8388278388275,1802.197802197802,1.0,5.613202128881572,178.1514324693042,-10.259541984732824,0.9923664122137404,3.9236641221374042,-0.9460269865067465,0.038980509745127435,-0.4737631184407796,1107.6923076923076,97.0240537986632,31.48104307281319,
1770985327469.541,4.510869565217392,-5.641304347826087,1.3695652173913042,2.5374027528426093,-8.900059844404549,-1.0604428485936566,4051.282051282051,1831.5018315018315,1.0,5.613202128881572,178.1514324693042,-13.31297709923664,6.106870229007633,9.801526717557252,-0.9565217391304347,0.05247376311844078,-0.4752623688155922,1128.2051282051282,97.03544657890721,31.48104307281319,
1770985327489.072,4.391304347826087,-5.815217391304348,1.3804347826086956,2.4655894673847993,-9.127468581687612,-1.0125673249551166,4051.282051282051,1839.5604395604394,1.0,5.6183073604676395,177.9895502044525,-14.167938931297709,9.083969465648854,14.977099236641221,-0.9550224887556221,0.050974512743628186,-0.47826086956521735,1149.4505494505493,97.03259837964761,31.48104307281319,
1770985327508.6033,4.380434782608695,-6.0978260869565215,1.3478260869565217,2.3530819868342308,-9.345302214242968,-1.0269299820466786,4049.8168498168498,1835.8974358974358,1.0,5.6183073604676395,177.9895502044525,-14.732824427480915,9.190839694656487,18.870229007633586,-0.9535232383808095,0.06596701649175413,-0.47976011994003,1175.8241758241757,97.0269019895256,31.48104307281319,
1770985327528.1345,4.423913043478261,-6.413043478260869,1.315217391304348,2.429682824655895,-9.742669060442848,-1.0843806104129263,4049.8168498168498,1835.164835164835,1.0,5.623412592053707,177.82796187017703,-14.717557251908396,5.0534351145038165,22.47328244274809,-0.944527736131934,0.07496251874062969,-0.47976011994003,1212.4542124542124,97.02975018318706,31.48104307281319,
1770985327547.6653,4.521739130434782,-6.576086956521739,1.315217391304348,2.4655894673847993,-10.00359066427289,-1.0939557151406343,4043.9560439560437,1832.9670329670328,1.0,5.6183073604676395,177.9895502044525,-13.206106870229007,-1.099236641221374,25.19083969465649,-0.9460269865067465,0.041979010494752625,-0.47826086956521735,1265.2014652014652,97.0240537986632,31.48104307281319,
1770985327567.1963,4.673913043478261,-6.576086956521739,1.326086956521739,2.606822262118492,-10.087372830640335,-1.0891681627767804,4021.978021978022,1796.3369963369962,1.0,5.623412592053707,177.82796187017703,-11.068702290076336,-6.534351145038167,26.65648854961832,-0.9340329835082458,0.04947526236881559,-0.48125937031484256,1336.9963369963368,97.02975018318706,31.48104307281319,
1770985327586.7275,4.8478260869565215,-6.489130434782608,1.3478260869565217,2.812687013764213,-10.001196888090963,-1.0819868342309993,4049.8168498168498,1824.1758241758241,1.0,5.628517823639775,177.66666666666666,-10.610687022900763,-9.49618320610687,26.687022900763356,-0.9490254872563718,0.04497751124437781,-0.48125937031484256,1404.3956043956043,97.02975018318706,31.48104307281319,
1770985327606.2588,4.989130434782608,-6.380434782608695,1.467391304347826,3.001795332136445,-9.893476959904248,-1.0197486535008977,4026.373626373626,1797.069597069597,1.0,5.628517823639775,177.66666666666666,-10.6412213740458,-10.13740458015267,26.213740458015266,-0.9295352323838081,0.05697151424287856,-0.47976011994003,1484.9816849816848,97.03259837964761,31.48104307281319,
1770985327625.7898,5.130434782608695,-6.369565217391304,1.4891304347826086,3.1549970077797727,-9.855176540993417,-0.9455415918611609,4023.4432234432234,1787.5457875457873,1.0,5.633623055225843,177.5056637970095,-12.748091603053435,-8.427480916030534,24.80916030534351,-0.9385307346326837,0.05397301349325337,-0.46926536731634183,1576.5567765567764,97.03418739225243,31.49109310740605,
1770985327645.3208,5.239130434782608,-6.293478260869565,1.6195652173913042,3.320167564332735,-9.790544584081388,-0.8450029922202273,4049.8168498168498,1821.245421245421,1.0,5.633623055225843,177.5056637970095,-13.98473282442748,-4.1679389312977095,23.12977099236641,-0.9310344827586207,0.05847076461769115,-0.46326836581709147,1653.4798534798533,97.03988388611906,31.49109310740605,
1770985327664.852,5.260869565217392,-6.304347826086956,1.7826086956521738,3.3464991023339317,-9.737881508078994,-0.6295631358467983,4048.3516483516482,1835.8974358974358,1.0,5.63872828681191,177.34495246717972,-15.32824427480916,1.7251908396946565,21.43511450381679,-0.9295352323838081,0.05697151424287856,-0.46176911544227883,1725.2747252747251,97.03418739225243,31.49109310740605,
1770985327684.383,5.25,-6.173913043478261,1.9021739130434783,3.3847995212447635,-9.687612208258528,-0.473967684021544,4049.8168498168498,1835.164835164835,1.0,5.63872828681191,177.34495246717972,-16.12213740458015,8.549618320610687,19.221374045801525,-0.9355322338830584,0.08245877061469264,-0.4737631184407796,1780.9523809523807,97.03418739225243,31.49109310740605,
1770985327703.9143,5.163043478260869,-5.978260869565217,1.9782608695652173,3.3034111310592458,-9.4721723518851,-0.3686415320167564,4051.282051282051,1841.0256410256409,1.0,5.643833518397978,177.18453188602442,-14.198473282442748,14.015267175572518,17.175572519083968,-0.9280359820089955,0.05397301349325337,-0.4662668665667166,1786.8131868131868,97.03418739225243,31.49109310740605,
1770985327723.4453,5.0,-5.967391304347826,2.010869565217391,3.1143028126870136,-9.37642130460802,-0.31358467983243565,4049.8168498168498,1835.8974358974358,1.0,5.648938749984047,177.0244012652508,-13.129770992366412,17.206106870229007,13.786259541984732,-0.9205397301349325,0.07196401799100449,-0.4752623688155922,1745.7875457875457,97.03418739225243,31.49109310740605,
1770985327742.9763,4.9021739130434785,-6.173913043478261,2.010869565217391,3.020945541591861,-9.570317175344105,-0.3399162178336326,4051.282051282051,1841.0256410256409,1.0,5.654043981570114,176.8645598194131,-11.969465648854962,17.083969465648853,10.290076335877862,-0.9280359820089955,0.05847076461769115,-0.46926536731634183,1682.051282051282,97.02849090958246,31.49109310740605,
1770985327762.5076,4.75,-6.163043478260869,2.0217391304347827,2.846199880311191,-9.637342908438061,-0.33034111310592457,4026.373626373626,1802.197802197802,1.0,5.654043981570114,176.8645598194131,-8.854961832061068,14.167938931297709,5.480916030534351,-0.9235382308845577,0.06446776611694152,-0.4737631184407796,1600.7326007326005,97.02849090958246,31.49109310740605,
1770985327782.0386,4.532608695652174,-5.869565217391304,1.934782608695652,2.618791143028127,-9.323758228605625,-0.38300418910831835,4051.282051282051,1831.5018315018315,1.0,5.659149213156182,176.70500676589987,-2.8702290076335877,9.938931297709923,0.8854961832061068,-0.9370314842578711,0.05847076461769115,-0.4707646176911544,1517.216117216117,97.02849090958246,31.49109310740605,
1770985327801.5698,4.434782608695652,-5.663043478260869,1.8152173913043477,2.491921005385996,-9.070017953321365,-0.5266307600239377,4049.8168498168498,1833.6996336996335,1.0,5.659149213156182,176.70500676589987,1.5572519083969465,2.595419847328244,-4.076335877862595,-0.9220389805097451,0.05697151424287856,-0.4707646176911544,1438.8278388278388,97.03133914951788,31.49109310740605,
1770985327821.1008,4.489130434782608,-5.630434782608695,1.684782608695652,2.5302214242968284,-8.995810891681627,-0.6750448833034112,4049.8168498168498,1833.6996336996335,1.0,5.66425444474225,176.54574132492112,3.3435114503816794,-5.526717557251908,-8.67175572519084,-0.9265367316341829,0.047976011994003,-0.4737631184407796,1356.7765567765566,97.03418739225243,31.49109310740605,
1770985327840.6318,4.576086956521739,-5.684782608695652,1.5978260869565217,2.594853381208857,-9.079593058049072,-0.8090963494913226,4023.4432234432234,1797.8021978021977,1.0,5.669359676328318,176.38676271949572,4.045801526717557,-10.625954198473282,-10.51908396946565,-0.9385307346326837,0.05547226386806597,-0.48575712143928035,1268.8644688644688,97.02849090958246,31.49109310740605,
1770985327860.163,4.641304347826087,-5.804347826086956,1.4782608695652173,2.645122681029324,-9.206463195691203,-0.9048473967684021,4026.373626373626,1789.7435897435896,1.0,5.669359676328318,176.38676271949572,4.6106870229007635,-13.648854961832061,-10.610687022900763,-0.9385307346326837,0.06596701649175413,-0.4872563718140929,1186.8131868131868,97.02849090958246,31.49109310740605,
1770985327879.694,4.75,-5.913043478260869,1.3695652173913042,2.760023937761819,-9.314183123877918,-1.0245362058647516,4048.3516483516482,1827.106227106227,1.0,5.674464907914385,176.2280701754386,4.3206106870229,-12.748091603053435,-8.13740458015267,-0.9325337331334332,0.050974512743628186,-0.46026986506746626,1126.007326007326,97.03418739225243,31.49109310740605,
1770985327899.225,4.739130434782608,-5.945652173913043,1.3043478260869565,2.774386594853381,-9.340514661879114,-1.0748055056852184,4049.8168498168498,1832.234432234432,1.0,5.679570139500453,176.0696629213483,4.9465648854961835,-10.183206106870228,-4.473282442748092,-0.9235382308845577,0.06896551724137931,-0.472263868065967,1100.3663003663003,97.03418739225243,31.49109310740605,
1770985327918.7563,4.815217391304348,-6.119565217391304,1.184782608695652,2.848593656493118,-9.438659485338121,-1.153800119688809,4024.9084249084244,1803.6630036630036,1.0,5.684675371086521,175.91154018859453,4.366412213740458,-6.381679389312977,0.12213740458015267,-0.9280359820089955,0.06596701649175413,-0.4737631184407796,1114.2857142857142,97.03988388611906,31.49109310740605,
1770985327938.2874,4.695652173913043,-6.228260869565217,1.1304347826086956,2.805505685218432,-9.658886894075403,-1.2639138240574506,4046.8864468864467,1825.6410256410254,1.0,5.689780602672588,175.75370121130553,3.114503816793893,-3.969465648854962,3.5877862595419847,-0.9310344827586207,0.06596701649175413,-0.4752623688155922,1158.974358974359,97.02849090958246,31.49109310740605,
1770985327957.8186,4.728260869565217,-6.173913043478261,1.2065217391304348,2.760023937761819,-9.656493117893477,-1.2399760622381808,4049.8168498168498,1831.5018315018315,1.0,5.689780602672588,175.75370121130553,4.748091603053435,-2.6717557251908395,4.900763358778626,-0.9355322338830584,0.06746626686656672,-0.4707646176911544,1239.5604395604396,97.03418739225243,31.49109310740605,
1770985327977.3496,4.880434782608695,-6.184782608695652,1.2391304347826086,2.9204069419509273,-9.6229802513465,-1.2375822860562538,4048.3516483516482,1839.5604395604394,1.0,5.694885834258656,175.5961452263559,3.480916030534351,-3.877862595419847,2.916030534351145,-0.9220389805097451,0.050974512743628186,-0.48125937031484256,1317.216117216117,97.02849090958246,31.49109310740605,
1770985327996.8806,4.913043478260869,-6.217391304347826,1.3043478260869565,2.9491322561340514,-9.632555356074207,-1.1083183722321963,4048.3516483516482,1841.7582417582416,1.0,5.699991065844724,175.43887147335423,2.4732824427480917,-4.534351145038168,0.22900763358778625,-0.9340329835082458,0.050974512743628186,-0.4677661169415292,1389.7435897435896,97.03418739225243,31.49109310740605,
1770985328016.412,4.913043478260869,-6.4021739130434785,1.315217391304348,3.047277079593058,-9.826451226810294,-1.0891681627767804,4043.9560439560437,1827.8388278388277,1.0,5.705096297430792,175.28187919463087,0.7786259541984732,-4.625954198473282,-5.511450381679389,-0.9220389805097451,0.05397301349325337,-0.4752623688155922,1441.7582417582416,97.03133914951788,31.49109310740605,
1770985328035.9429,4.684782608695652,-6.4021739130434785,1.4021739130434783,2.8438061041292637,-9.912627169359665,-1.0269299820466786,4048.3516483516482,1838.095238095238,1.0,5.710201529016859,175.12516763522575,1.3435114503816794,-4.259541984732825,-11.923664122137405,-0.9310344827586207,0.05697151424287856,-0.47826086956521735,1456.4102564102564,97.03133914951788,31.49109310740605,
1770985328055.474,4.58695652173913,-6.239130434782608,1.467391304347826,2.6977857570317174,-9.766606822262117,-0.9982046678635548,4048.3516483516482,1841.0256410256409,1.0,5.715306760602927,174.9687360428763,2.900763358778626,-5.66412213740458,-20.48854961832061,-0.9250374812593702,0.0704647676161919,-0.472263868065967,1465.9340659340658,97.0256426724462,31.49109310740605,
1770985328075.0051,4.489130434782608,-6.217391304347826,1.5217391304347825,2.6116098144823456,-9.649311789347696,-0.8880909634949132,4026.373626373626,1801.4652014652013,1.0,5.720411992188995,174.81258366800537,4.702290076335878,-11.618320610687022,-37.23664122137404,-0.9310344827586207,0.05547226386806597,-0.472263868065967,1460.07326007326,97.0227944381091,31.49109310740605,
1770985328094.536,4.33695652173913,-6.217391304347826,1.5652173913043477,2.4129263913824057,-9.682824655894674,-0.8258527827648114,4051.282051282051,1831.5018315018315,1.0,5.725517223775063,174.65670976370933,5.648854961832061,-15.938931297709923,-44.01526717557252,-0.9295352323838081,0.05847076461769115,-0.4677661169415292,1438.8278388278388,97.0256426724462,31.49109310740605,
1770985328114.0674,4.271739130434782,-6.239130434782608,1.6304347826086956,2.3099940155595453,-9.673249551166966,-0.7420706163973668,4051.282051282051,1839.5604395604394,1.0,5.730622455361131,174.5011135857461,6.763358778625954,-19.69465648854962,-48.534351145038165,-0.9310344827586207,0.07196401799100449,-0.472263868065967,1405.8608058608058,97.03703563778618,31.49109310740605,
1770985328133.5984,4.163043478260869,-6.239130434782608,1.6195652173913042,2.2142429682824654,-9.694793536804308,-0.7660083782166367,4049.8168498168498,1835.8974358974358,1.0,5.730622455361131,174.5011135857461,8.50381679389313,-22.015267175572518,-50.9618320610687,-0.9355322338830584,0.041979010494752625,-0.4752623688155922,1375.8241758241757,97.03703563778618,31.49109310740605,
1770985328153.1296,4.032608695652174,-6.184782608695652,1.641304347826087,2.063435068821065,-9.65409934171155,-0.7348892878515858,4051.282051282051,1841.7582417582416,1.0,5.740832918533267,174.1907514450867,9.893129770992367,-24.687022900763356,-51.77099236641221,-0.9475262368815592,0.04497751124437781,-0.48275862068965514,1361.1721611721612,97.03418739225243,31.49109310740605,
1770985328172.6606,3.9456521739130435,-6.141304347826087,1.641304347826087,1.9293836026331537,-9.603830041891083,-0.708557749850389,4048.3516483516482,1841.7582417582416,1.0,5.7459381501193345,174.03598400710797,11.206106870229007,-28.458015267175572,-50.83969465648855,-0.944527736131934,0.046476761619190406,-0.47976011994003,1362.6373626373625,97.03133914951788,31.49109310740605,
1770985328192.1917,3.9239130434782608,-6.076086956521739,1.6956521739130435,1.859964093357271,-9.532016756433274,-0.6750448833034112,4051.282051282051,1842.4908424908424,1.0,5.751043381705402,173.88149134487352,13.114503816793892,-32.0763358778626,-48.33587786259542,-0.9385307346326837,0.05247376311844078,-0.4662668665667166,1350.18315018315,97.03418739225243,31.49109310740605,
1770985328211.723,3.8260869565217392,-5.934782608695652,1.7608695652173914,1.7690005984440453,-9.35966487133453,-0.5385996409335727,4049.8168498168498,1836.6300366300366,1.0,5.75614861329147,173.72727272727275,14.122137404580153,-36.38167938931298,-43.95419847328244,-0.9490254872563718,0.047976011994003,-0.47826086956521735,1317.9487179487178,97.02849090958246,31.49109310740605,
1770985328231.254,3.8260869565217392,-5.880434782608695,1.7826086956521738,1.7426690604428485,-9.26391382405745,-0.5505685218432076,4026.373626373626,1800.7326007326005,1.0,5.761253844877538,173.57332742578646,13.740458015267174,-40.229007633587784,-37.664122137404576,-0.9475262368815592,0.06446776611694152,-0.47826086956521735,1272.5274725274724,97.03133914951788,31.49109310740605,
1770985328250.7852,3.9130434782608696,-5.782608695652174,1.7391304347826086,1.8360263315380012,-9.194494314781569,-0.6343506882106523,4023.4432234432234,1789.0109890109889,1.0,5.771464308049673,173.26625386996906,14.50381679389313,-42.396946564885496,-31.557251908396946,-0.9490254872563718,0.04047976011994003,-0.4587706146926537,1232.967032967033,97.03703563778618,31.49109310740605,
1770985328270.3162,3.9565217391304346,-5.641304347826087,1.75,1.8886894075403948,-9.007779772591263,-0.6223818073010173,4051.282051282051,1827.8388278388277,1.0,5.776569539635741,173.11312417145385,14.473282442748092,-42.01526717557252,-23.51145038167939,-0.944527736131934,0.038980509745127435,-0.4587706146926537,1208.7912087912086,97.03133914951788,31.49109310740605,
1770985328289.8472,4.032608695652174,-5.565217391304348,1.8043478260869565,1.9605026929982046,-8.916816277678038,-0.5792938360263316,4049.8168498168498,1832.9670329670328,1.0,5.781674771221809,172.96026490066225,12.458015267175572,-38.99236641221374,-15.14503816793893,-0.952023988005997,0.029985007496251874,-0.4662668665667166,1226.3736263736264,97.03133914951788,31.49109310740605,
1770985328309.3784,4.0978260869565215,-5.478260869565217,1.858695652173913,2.056253740275284,-8.82585278276481,-0.4955116696588869,4051.282051282051,1840.2930402930401,1.0,5.786780002807876,172.8076753418615,10.748091603053435,-35.51145038167939,-6.290076335877862,-0.9415292353823088,0.038980509745127435,-0.4677661169415292,1285.7142857142856,97.03418739225243,31.49109310740605,
1770985328328.9094,4.173913043478261,-5.478260869565217,1.934782608695652,2.106523040095751,-8.833034111310592,-0.457211250748055,4051.282051282051,1842.4908424908424,1.0,5.796990465980013,172.50330250990754,7.877862595419847,-31.251908396946565,2.610687022900763,-0.9490254872563718,0.04497751124437781,-0.46026986506746626,1354.5787545787546,97.03133914951788,31.49109310740605,
1770985328348.441,4.315217391304348,-5.467391304347826,2.0,2.1759425493716336,-8.837821663674447,-0.3566726511071215,4049.8168498168498,1836.6300366300366,1.0,5.802095697566081,172.35151781786186,4.3206106870229,-25.46564885496183,9.16030534351145,-0.944527736131934,0.04947526236881559,-0.4587706146926537,1417.5824175824175,97.02849090958246,31.49109310740605,
1770985328367.9717,4.326086956521739,-5.489130434782608,2.0217391304347827,2.3099940155595453,-8.840215439856372,-0.34709754637941354,4049.8168498168498,1835.164835164835,1.0,5.807200929152148,172.20000000000002,2.229007633587786,-19.679389312977097,15.84732824427481,-0.9415292353823088,0.043478260869565216,-0.46326836581709147,1473.260073260073,97.03418739225243,31.49109310740605,
1770985328387.5027,4.25,-5.5978260869565215,2.0217391304347827,2.2692998204667862,-8.907241172950329,-0.33034111310592457,4026.373626373626,1799.9999999999998,1.0,5.812306160738216,172.0487483530962,0.48854961832061067,-16.47328244274809,22.213740458015266,-0.9340329835082458,0.06596701649175413,-0.46176911544227883,1501.8315018315018,97.02849090958246,31.49109310740605,
1770985328407.034,4.195652173913043,-5.75,2.0652173913043477,2.1831238779174145,-9.046080191502094,-0.2704967085577498,4051.282051282051,1831.5018315018315,1.0,5.817411392324284,171.89776217639317,-0.4580152671755725,-15.908396946564885,27.068702290076335,-0.9430284857571214,0.041979010494752625,-0.4542728635682159,1505.4945054945053,97.03418739225243,31.49109310740605,
1770985328426.565,4.228260869565217,-5.880434782608695,2.0760869565217392,2.1998803111909035,-9.251944943147816,-0.2513464991023339,4051.282051282051,1839.5604395604394,1.0,5.822516623910351,171.74704077159143,0.38167938931297707,-16.50381679389313,30.931297709923662,-0.9280359820089955,0.05397301349325337,-0.4452773613193403,1499.6336996336995,97.03133914951788,31.49109310740605,
1770985328446.096,4.293478260869565,-5.945652173913043,2.0543478260869565,2.2692998204667862,-9.338120885697187,-0.2728904847396768,4049.8168498168498,1835.8974358974358,1.0,5.822516623910351,171.74704077159143,2.1374045801526718,-19.358778625954198,33.45038167938931,-0.9280359820089955,0.046476761619190406,-0.45727136431784104,1469.5970695970695,97.03133914951788,31.49109310740605,
1770985328465.6272,4.282608695652174,-6.043478260869565,1.9782608695652173,2.2812687013764212,-9.426690604428485,-0.33273488928785155,4023.4432234432234,1798.5347985347985,1.0,5.827621855496419,171.59658344283838,4.0,-23.32824427480916,35.61832061068702,-0.9145427286356821,0.05847076461769115,-0.4542728635682159,1429.3040293040292,97.03418739225243,31.49109310740605,
1770985328485.1582,4.369565217391305,-6.217391304347826,1.858695652173913,2.343506882106523,-9.596648713345301,-0.4428485936564931,4049.8168498168498,1824.9084249084249,1.0,5.832727087082487,171.44638949671773,5.1603053435114505,-27.96946564885496,36.595419847328245,-0.9205397301349325,0.05247376311844078,-0.4512743628185907,1396.3369963369962,97.03133914951788,31.49109310740605,
1770985328504.6897,4.532608695652174,-6.33695652173913,1.7934782608695652,2.503889886295631,-9.785757031717534,-0.5170556552962298,4049.8168498168498,1831.5018315018315,1.0,5.837832318668554,171.29645824223877,7.2824427480916025,-31.81679389312977,36.48854961832061,-0.9175412293853074,0.047976011994003,-0.45277361319340326,1368.4981684981683,97.03988388611906,31.49109310740605,
1770985328524.2205,4.608695652173913,-6.315217391304348,1.8043478260869565,2.633153800119689,-9.797725912627168,-0.5649311789347696,4049.8168498168498,1833.6996336996335,1.0,5.842937550254622,171.1467889908257,8.65648854961832,-34.36641221374045,35.05343511450381,-0.9115442278860569,0.037481259370314844,-0.43778110944527737,1353.8461538461538,97.03133914951788,31.49109310740605,
1770985328543.7517,4.717391304347826,-6.293478260869565,1.8043478260869565,2.762417713943746,-9.771394374625972,-0.5792938360263316,4026.373626373626,1793.4065934065932,1.0,5.84804278184069,170.99738105630732,7.923664122137405,-35.89312977099237,33.00763358778626,-0.8980509745127436,0.0704647676161919,-0.4512743628185907,1345.054945054945,97.03418739225243,31.49109310740605,
1770985328563.2827,4.826086956521739,-6.304347826086956,1.7391304347826086,2.853381208856972,-9.795332136445243,-0.6511071214841412,4049.8168498168498,1822.7106227106226,1.0,5.84804278184069,170.99738105630732,6.99236641221374,-36.45801526717557,29.84732824427481,-0.8995502248875562,0.041979010494752625,-0.4452773613193403,1356.7765567765566,97.03418739225243,31.49109310740605,
1770985328582.8137,4.9021739130434785,-6.239130434782608,1.7391304347826086,2.9539198084979055,-9.728306403351286,-0.6439257929383603,4048.3516483516482,1836.6300366300366,1.0,5.858253245012826,170.69934640522877,6.244274809160305,-35.51145038167939,26.381679389312975,-0.8920539730134932,0.05247376311844078,-0.43928035982008995,1388.278388278388,97.03418739225243,31.49109310740605,
1770985328602.345,4.967391304347826,-6.1521739130434785,1.75,3.0281268701376423,-9.60622381807301,-0.6439257929383603,4048.3516483516482,1840.2930402930401,1.0,5.858253245012826,170.69934640522877,5.007633587786259,-33.358778625954194,22.061068702290076,-0.8905547226386806,0.06446776611694152,-0.4407796101949025,1418.3150183150183,97.03133914951788,31.49109310740605,
1770985328621.876,5.0,-6.108695652173913,1.717391304347826,3.078396169958109,-9.536804308797127,-0.6582884500299222,4021.978021978022,1798.5347985347985,1.0,5.8684637081849615,170.40234884732496,3.877862595419847,-31.114503816793892,18.0,-0.8950524737631184,0.05997001499250375,-0.43778110944527737,1454.212454212454,97.03054466508442,31.4860680899641,
1770985328641.407,4.967391304347826,-6.076086956521739,1.7391304347826086,3.0951526032315977,-9.532016756433274,-0.6535008976660682,4046.8864468864467,1824.1758241758241,1.0,5.8735689397710305,170.2542372881356,3.1755725190839694,-29.12977099236641,14.061068702290076,-0.896551724137931,0.06296851574212893,-0.43628185907046474,1478.3882783882782,97.03908933227436,31.4860680899641,
1770985328660.9382,4.923913043478261,-6.021739130434782,1.7717391304347825,3.025733093955715,-9.467384799521245,-0.6175942549371634,4048.3516483516482,1836.6300366300366,1.0,5.878674171357098,170.10638297872342,3.1755725190839694,-27.236641221374043,10.213740458015266,-0.8875562218890555,0.05997001499250375,-0.4332833583208396,1476.1904761904761,97.03624110707861,31.4860680899641,
1770985328680.4692,4.826086956521739,-5.945652173913043,1.8695652173913042,2.9108318372232196,-9.37642130460802,-0.5218432076600837,4049.8168498168498,1835.164835164835,1.0,5.8837794029431665,169.9587852494577,3.4351145038167936,-27.51145038167939,7.358778625954198,-0.8920539730134932,0.07796101949025487,-0.4452773613193403,1466.6666666666665,97.02769644828602,31.4860680899641,
1770985328700.0005,4.58695652173913,-5.923913043478261,2.25,2.6953919808497906,-9.307001795332136,-0.1364452423698384,4026.373626373626,1799.2673992673992,1.0,5.8888846345292345,169.8114434330299,3.068702290076336,-30.0,3.8167938931297707,-0.8860569715142429,0.05847076461769115,-0.4407796101949025,1451.2820512820513,97.03339288468196,31.4860680899641,
1770985328719.5315,4.358695652173913,-5.945652173913043,2.5543478260869565,2.4033512866546975,-9.357271095152603,0.2585278276481149,4049.8168498168498,1824.9084249084249,1.0,5.8888846345292345,169.8114434330299,3.633587786259542,-38.76335877862595,-0.16793893129770993,-0.8875562218890555,0.046476761619190406,-0.4452773613193403,1427.106227106227,97.03624110707861,31.4860680899641,
1770985328739.0625,4.108695652173913,-6.065217391304348,2.608695652173913,2.142429682824656,-9.460203470975463,0.3973668461998803,4049.8168498168498,1831.5018315018315,1.0,5.89909509770137,169.51752488100388,6.625954198473282,-54.38167938931298,-4.091603053435114,-0.8770614692653673,0.05547226386806597,-0.4332833583208396,1397.069597069597,97.03339288468196,31.4860680899641,
1770985328758.5938,4.032608695652174,-6.1521739130434785,2.1739130434782608,2.0107719928186714,-9.565529622980252,0.21543985637342908,4049.8168498168498,1833.6996336996335,1.0,5.904200329287438,169.37094682230867,14.595419847328243,-76.8854961832061,-7.98473282442748,-0.8695652173913043,0.05997001499250375,-0.43628185907046474,1356.7765567765566,97.03339288468196,31.4860680899641,
1770985328778.1248,4.130434782608695,-6.065217391304348,1.8369565217391304,2.0347097546379413,-9.551166965888688,-0.29443447037701975,4051.282051282051,1840.2930402930401,1.0,5.909305560873506,169.22462203023755,22.48854961832061,-97.95419847328245,-12.381679389312977,-0.8740629685157421,0.05397301349325337,-0.43178410794602695,1329.6703296703297,97.03339288468196,31.4860680899641,
1770985328797.656,4.58695652173913,-6.065217391304348,1.858695652173913,2.329144225014961,-9.486535008976661,-0.5385996409335727,4049.8168498168498,1835.8974358974358,1.0,5.914410792459574,169.07854984894257,25.603053435114504,-110.79389312977099,-15.587786259541984,-0.8740629685157421,0.05997001499250375,-0.43178410794602695,1315.7509157509157,97.03339288468196,31.4860680899641,
1770985328817.187,4.934782608695652,-5.967391304347826,2.0760869565217392,2.841412327947337,-9.460203470975463,-0.38061041292639136,4049.8168498168498,1835.164835164835,1.0,5.919516024045641,168.9327296248383,29.083969465648853,-116.4885496183206,-17.236641221374047,-0.8650674662668666,0.05397301349325337,-0.43178410794602695,1317.9487179487178,97.03339288468196,31.4860680899641,
1770985328836.718,5.206521739130435,-5.858695652173913,2.2391304347826084,3.178934769599042,-9.297426690604429,-0.1627767803710353,4049.8168498168498,1834.4322344322343,1.0,5.924621255631709,168.78716070659198,26.213740458015266,-112.18320610687023,-18.595419847328245,-0.8590704647676162,0.047976011994003,-0.4407796101949025,1342.8571428571427,97.03054466508442,31.4860680899641,
1770985328856.2493,5.5,-5.880434782608695,2.2065217391304346,3.509275882704967,-9.290245362058647,-0.12687013764213045,4027.8388278388275,1806.5934065934064,1.0,5.929726487217777,168.64184244511407,21.099236641221374,-99.31297709923663,-19.16030534351145,-0.848575712143928,0.05547226386806597,-0.4332833583208396,1370.6959706959706,97.03054466508442,31.4860680899641,
1770985328875.7805,5.543478260869565,-5.913043478260869,2.217391304347826,3.6600837821663674,-9.326152004787552,-0.10293237582286056,4051.282051282051,1832.9670329670328,1.0,5.929726487217777,168.64184244511407,15.633587786259541,-78.04580152671755,-18.198473282442748,-0.848575712143928,0.07796101949025487,-0.4452773613193403,1389.7435897435896,97.03054466508442,31.4860680899641,
1770985328895.3113,5.5,-5.956521739130435,2.108695652173913,3.6361460203470974,-9.342908438061041,-0.21783363255535607,4049.8168498168498,1834.4322344322343,1.0,5.929726487217777,168.64184244511407,10.50381679389313,-54.58015267175573,-16.85496183206107,-0.8470764617691154,0.06446776611694152,-0.4287856071964018,1397.069597069597,97.02769644828602,31.4860680899641,
1770985328914.8423,5.326086956521739,-6.043478260869565,2.043478260869565,3.5380011968880907,-9.467384799521245,-0.31358467983243565,4049.8168498168498,1833.6996336996335,1.0,5.929726487217777,168.64184244511407,6.687022900763359,-33.29770992366412,-14.427480916030534,-0.841079460269865,0.07346326836581708,-0.42728635682158916,1410.989010989011,97.03339288468196,31.4860680899641,
1770985328934.3735,5.021739130434782,-6.130434782608695,2.0760869565217392,3.1669658886894076,-9.546379413524836,-0.2704967085577498,4049.8168498168498,1834.4322344322343,1.0,5.934831718803845,168.49677419354836,5.480916030534351,-17.297709923664122,-12.732824427480915,-0.841079460269865,0.0704647676161919,-0.4287856071964018,1452.014652014652,97.03339288468196,31.4860680899641,
1770985328953.9048,4.826086956521739,-6.195652173913043,2.108695652173913,2.9275882704967087,-9.637342908438061,-0.23219628964691802,4051.282051282051,1840.2930402930401,1.0,5.939936950389912,168.35195530726256,4.854961832061068,-7.755725190839694,-11.541984732824426,-0.8425787106446776,0.07796101949025487,-0.4467766116941529,1506.9597069597069,97.02769644828602,31.4860680899641,
1770985328973.4358,4.5978260869565215,-6.1521739130434785,2.1630434782608696,2.6929982046678633,-9.61340514661879,-0.20825852782764812,4049.8168498168498,1835.8974358974358,1.0,5.945042181975981,168.20738514383854,5.175572519083969,-3.3893129770992365,-10.778625954198473,-0.8425787106446776,0.05697151424287856,-0.43628185907046474,1583.8827838827838,97.03054466508442,31.4860680899641,
1770985328992.9668,4.456521739130435,-6.0978260869565215,2.217391304347826,2.5014961101137043,-9.534410532615201,-0.12687013764213045,4051.282051282051,1841.7582417582416,1.0,5.945042181975981,168.20738514383854,4.687022900763359,-2.9618320610687023,-11.206106870229007,-0.841079460269865,0.047976011994003,-0.4407796101949025,1647.6190476190475,97.03054466508442,31.4860680899641,
1770985329012.498,4.380434782608695,-6.043478260869565,2.217391304347826,2.4009575104727707,-9.476959904248952,-0.09096349491322561,4026.373626373626,1802.197802197802,1.0,5.945042181975981,168.20738514383854,4.122137404580153,-5.267175572519084,-11.389312977099236,-0.8500749625187406,0.05697151424287856,-0.4257871064467766,1684.9816849816848,97.02769644828602,31.4860680899641,
1770985329032.0596,4.315217391304348,-5.989130434782608,2.2065217391304346,2.324356672651107,-9.421903052064632,-0.12208258527827648,4052.7472527472523,1832.234432234432,1.0,5.950147413562048,168.06306306306305,3.709923664122137,-8.67175572519084,-11.801526717557252,-0.8395802098950524,0.06446776611694152,-0.43478260869565216,1693.040293040293,97.03054466508442,31.4860680899641,
1770985329051.5603,4.25,-5.913043478260869,2.1739130434782608,2.264512268102932,-9.33572710951526,-0.13405146618791142,4051.282051282051,1840.2930402930401,1.0,5.950147413562048,168.06306306306305,3.5114503816793894,-12.625954198473282,-12.030534351145038,-0.8515742128935532,0.06146926536731634,-0.43778110944527737,1659.3406593406592,97.02484823428671,31.4860680899641,
1770985329071.0913,4.304347826086956,-5.891304347826087,2.130434782608696,2.2692998204667862,-9.28785158587672,-0.1627767803710353,4049.8168498168498,1835.8974358974358,1.0,5.955252645148117,167.9189884269181,3.7251908396946565,-16.595419847328245,-12.458015267175572,-0.8455772113943029,0.05847076461769115,-0.43628185907046474,1585.3479853479853,97.02769644828602,31.4860680899641,
1770985329090.6223,4.369565217391305,-5.869565217391304,2.2065217391304346,2.360263315380012,-9.26391382405745,-0.13405146618791142,4051.282051282051,1841.0256410256409,1.0,5.955252645148117,167.9189884269181,3.2519083969465647,-18.061068702290076,-11.893129770992365,-0.8440779610194902,0.08695652173913043,-0.43928035982008995,1499.6336996336995,97.02769644828602,31.4860680899641,
1770985329110.1536,4.4021739130434785,-5.8478260869565215,2.2391304347826084,2.410532615200479,-9.244763614602034,-0.08378216636744464,4049.8168498168498,1835.8974358974358,1.0,5.955252645148117,167.9189884269181,2.4122137404580153,-17.709923664122137,-10.702290076335878,-0.841079460269865,0.05247376311844078,-0.44377811094452774,1405.128205128205,97.02769644828602,31.4860680899641,
