Shimmer_A679_TimestampSync_Unix_CAL,Shimmer_A679_Accel_LN_X_CAL,Shimmer_A679_Accel_LN_Y_CAL,Shimmer_A679_Accel_LN_Z_CAL,Shimmer_A679_Accel_WR_X_CAL,Shimmer_A679_Accel_WR_Y_CAL,Shimmer_A679_Accel_WR_Z_CAL,Shimmer_A679_Battery_CAL,Shimmer_A679_Ext_Exp_A15_CAL,Shimmer_A679_GSR_Range_CAL,Shimmer_A679_GSR_Skin_Conductance_CAL,Shimmer_A679_GSR_Skin_Resistance_CAL,Shimmer_A679_Gyro_X_CAL,Shimmer_A679_Gyro_Y_CAL,Shimmer_A679_Gyro_Z_CAL,Shimmer_A679_Mag_X_CAL,Shimmer_A679_Mag_Y_CAL,Shimmer_A679_Mag_Z_CAL,Shimmer_A679_PPG_A13_CAL,Shimmer_A679_Pressure_BMP280_CAL,Shimmer_A679_Temperature_BMP280_CAL,Unnamed: 21
1770984077010.3042,4.630434782608695,-5.956521739130435,1.858695652173913,2.669060442848594,-9.362058647516458,-0.5050867743865949,4073.260073260073,1877.6556776556774,1.0,6.741458309402559,148.33585762968573,-2.687022900763359,-1.6793893129770991,-2.351145038167939,-0.9250374812593702,0.08545727136431784,-0.472263868065967,860.8058608058608,97.05140743076822,31.23984259183053,
1770984077029.8354,4.641304347826087,-5.967391304347826,1.8152173913043477,2.6834230999401556,-9.357271095152603,-0.5098743267504489,4073.260073260073,1879.120879120879,1.0,6.741458309402559,148.33585762968573,-2.7022900763358777,-4.061068702290076,-3.847328244274809,-0.9280359820089955,0.06596701649175413,-0.46176911544227883,887.9120879120878,97.04286601352028,31.23984259183053,
1770984077049.3665,4.663043478260869,-5.956521739130435,1.7934782608695652,2.6953919808497906,-9.35966487133453,-0.5745062836624776,4071.7948717948716,1884.9816849816848,1.0,6.741458309402559,148.33585762968573,-2.8244274809160306,-5.511450381679389,-5.007633587786259,-0.9235382308845577,0.07496251874062969,-0.4662668665667166,950.1831501831501,97.04286601352028,31.23984259183053,
1770984077068.8977,4.641304347826087,-6.0,1.7826086956521738,2.669060442848594,-9.390783961699581,-0.5409934171154996,4065.9340659340655,1878.3882783882782,1.0,6.736353077816491,148.44827586206898,-3.1755725190839694,-6.580152671755725,-5.038167938931298,-0.9250374812593702,0.0704647676161919,-0.4587706146926537,1031.5018315018315,97.04286601352028,31.23984259183053,
1770984077088.4287,4.695652173913043,-5.945652173913043,1.7826086956521738,2.6810293237582283,-9.393177737881508,-0.5673249551166966,4048.3516483516482,1852.7472527472526,1.0,6.741458309402559,148.33585762968573,-2.6717557251908395,-7.694656488549618,-4.916030534351145,-0.9235382308845577,0.07796101949025487,-0.46326836581709147,1120.14652014652,97.04001888003155,31.23984259183053,
1770984077107.9597,4.717391304347826,-5.858695652173913,1.8152173913043477,2.74326750448833,-9.31178934769599,-0.5625374027528426,4074.7252747252746,1878.3882783882782,1.0,6.741458309402559,148.33585762968573,-2.4732824427480917,-7.709923664122137,-4.564885496183206,-0.9265367316341829,0.07196401799100449,-0.46476761619190404,1191.9413919413919,97.04286601352028,31.23984259183053,
1770984077127.491,4.706521739130435,-5.8478260869565215,1.891304347826087,2.736086175942549,-9.251944943147816,-0.5074805505685218,4073.260073260073,1879.120879120879,1.0,6.736353077816491,148.44827586206898,-2.748091603053435,-7.0534351145038165,-4.061068702290076,-0.9265367316341829,0.08545727136431784,-0.4707646176911544,1235.8974358974358,97.04856028888861,31.23984259183053,
1770984077147.022,4.706521739130435,-5.815217391304348,1.9239130434782608,2.731298623578695,-9.21603830041891,-0.43087971274685816,4064.468864468864,1871.0622710622708,1.0,6.736353077816491,148.44827586206898,-3.465648854961832,-6.0,-3.5725190839694654,-0.9265367316341829,0.06596701649175413,-0.4662668665667166,1240.2930402930401,97.04856028888861,31.23984259183053,
1770984077166.553,4.793478260869565,-5.83695652173913,1.8804347826086956,2.805505685218432,-9.228007181328545,-0.473967684021544,4043.9560439560437,1837.3626373626373,1.0,6.736353077816491,148.44827586206898,-4.595419847328244,-5.190839694656488,-2.9618320610687023,-0.9340329835082458,0.06596701649175413,-0.46176911544227883,1227.106227106227,97.04856028888861,31.23984259183053,
1770984077186.0842,4.782608695652174,-5.8478260869565215,1.891304347826087,2.8629563135846796,-9.244763614602034,-0.44763614602034707,4073.260073260073,1867.3992673992673,1.0,6.741458309402559,148.33585762968573,-4.916030534351145,-3.679389312977099,-2.1221374045801524,-0.9250374812593702,0.07646176911544228,-0.4587706146926537,1216.117216117216,97.04856028888861,31.23984259183053,
1770984077205.6152,4.804347826086956,-5.880434782608695,1.8804347826086956,2.848593656493118,-9.28785158587672,-0.44763614602034707,4073.260073260073,1876.1904761904761,1.0,6.736353077816491,148.44827586206898,-5.129770992366412,-1.114503816793893,-1.5267175572519083,-0.9160419790104948,0.07946026986506746,-0.45577211394302847,1188.278388278388,97.04286601352028,31.23984259183053,
1770984077225.1465,4.826086956521739,-5.934782608695652,1.8695652173913042,2.872531418312388,-9.31897067624177,-0.49790544584081387,4073.260073260073,1878.3882783882782,1.0,6.736353077816491,148.44827586206898,-5.129770992366412,0.3511450381679389,-0.8549618320610687,-0.9235382308845577,0.0704647676161919,-0.46476761619190404,1150.18315018315,97.04856028888861,31.23984259183053,
1770984077244.6775,4.826086956521739,-5.923913043478261,1.9021739130434783,2.8797127468581687,-9.342908438061041,-0.45481747456612803,4048.3516483516482,1852.0146520146518,1.0,6.736353077816491,148.44827586206898,-4.427480916030534,1.9083969465648853,-0.6259541984732824,-0.9190404797601199,0.06746626686656672,-0.46326836581709147,1114.2857142857142,97.05710172291832,31.23984259183053,
1770984077264.2085,4.771739130434782,-5.934782608695652,1.934782608695652,2.8629563135846796,-9.350089766606821,-0.3901855176540993,4073.260073260073,1871.7948717948716,1.0,6.736353077816491,148.44827586206898,-4.33587786259542,3.877862595419847,-0.3969465648854962,-0.9190404797601199,0.06746626686656672,-0.4587706146926537,1089.3772893772893,97.05140743076822,31.23984259183053,
1770984077283.7395,4.771739130434782,-5.9021739130434785,1.9021739130434783,2.817474566128067,-9.309395571514063,-0.44763614602034707,4073.260073260073,1876.923076923077,1.0,6.731247846230423,148.56086461888512,-4.198473282442748,4.061068702290076,-1.1603053435114503,-0.9220389805097451,0.05997001499250375,-0.46476761619190404,1070.3296703296703,97.04286601352028,31.23984259183053,
1770984077303.2708,4.673913043478261,-5.83695652173913,1.8369565217391304,2.7456612806702574,-9.235188509874327,-0.49790544584081387,4065.9340659340655,1876.1904761904761,1.0,6.731247846230423,148.56086461888512,-3.9236641221374042,3.618320610687023,-1.8778625954198473,-0.9205397301349325,0.06446776611694152,-0.46326836581709147,1051.2820512820513,97.04856028888861,31.23984259183053,
1770984077322.802,4.5978260869565215,-5.728260869565217,1.8478260869565217,2.669060442848594,-9.139437462597247,-0.5242369838420108,4073.260073260073,1878.3882783882782,1.0,6.731247846230423,148.56086461888512,-3.32824427480916,1.9236641221374045,-3.312977099236641,-0.9175412293853074,0.07346326836581708,-0.46026986506746626,1044.6886446886447,97.04571314980596,31.23984259183053,
1770984077342.333,4.543478260869565,-5.728260869565217,1.7608695652173914,2.594853381208857,-9.081986834231,-0.5792938360263316,4073.260073260073,1879.120879120879,1.0,6.726142614644356,148.67362428842506,-3.16030534351145,0.030534351145038167,-4.2748091603053435,-0.9220389805097451,0.07496251874062969,-0.46476761619190404,1045.4212454212454,97.04856028888861,31.23984259183053,
1770984077361.864,4.543478260869565,-5.793478260869565,1.717391304347826,2.594853381208857,-9.153800119688809,-0.6271693596648713,4073.260073260073,1879.120879120879,1.0,6.726142614644356,148.67362428842506,-3.2671755725190836,-2.900763358778626,-5.404580152671755,-0.9145427286356821,0.0704647676161919,-0.4662668665667166,1054.212454212454,97.04001888003155,31.23984259183053,
1770984077381.3953,4.608695652173913,-5.956521739130435,1.7282608695652173,2.633153800119689,-9.369239976062238,-0.6702573309395571,4073.260073260073,1879.8534798534797,1.0,6.721037383058288,148.78655526015953,-4.854961832061068,-6.717557251908397,-4.259541984732825,-0.9220389805097451,0.08095952023988005,-0.4737631184407796,1065.9340659340658,97.04286601352028,31.23984259183053,
1770984077400.9265,4.663043478260869,-6.054347826086956,1.7282608695652173,2.6786355475763015,-9.46259724715739,-0.6415320167564332,4064.468864468864,1871.0622710622708,1.0,6.721037383058288,148.78655526015953,-4.595419847328244,-6.916030534351145,-3.2519083969465647,-0.9160419790104948,0.05847076461769115,-0.45727136431784104,1076.923076923077,97.04856028888861,31.23984259183053,
1770984077420.4575,4.663043478260869,-6.043478260869565,1.7065217391304348,2.7025733093955715,-9.469778575703172,-0.6941950927588271,4074.7252747252746,1883.5164835164833,1.0,6.721037383058288,148.78655526015953,-4.65648854961832,-7.007633587786259,-2.045801526717557,-0.9250374812593702,0.06896551724137931,-0.45727136431784104,1084.2490842490843,97.05140743076822,31.23984259183053,
1770984077439.9883,4.695652173913043,-6.043478260869565,1.6304347826086956,2.7097546379413524,-9.464991023339318,-0.7253141831238779,4073.260073260073,1880.5860805860805,1.0,6.721037383058288,148.78655526015953,-5.770992366412213,-6.885496183206107,-1.2213740458015268,-0.9175412293853074,0.05547226386806597,-0.46476761619190404,1084.2490842490843,97.05140743076822,31.23984259183053,
1770984077459.5195,4.782608695652174,-6.043478260869565,1.684782608695652,2.781567923399162,-9.464991023339318,-0.7420706163973668,4064.468864468864,1871.7948717948716,1.0,6.715932151472221,148.89965792474345,-5.969465648854961,-4.870229007633587,-0.8854961832061068,-0.9265367316341829,0.06896551724137931,-0.45577211394302847,1112.8205128205127,97.05140743076822,31.23984259183053,
1770984077479.0508,4.826086956521739,-5.978260869565217,1.7282608695652173,2.8557749850388987,-9.443447037701974,-0.6726511071214841,4073.260073260073,1883.5164835164833,1.0,6.715932151472221,148.89965792474345,-6.381679389312977,-2.8396946564885495,-0.9465648854961831,-0.9235382308845577,0.07346326836581708,-0.4587706146926537,1227.106227106227,97.04286601352028,31.23984259183053,
1770984077498.5818,4.782608695652174,-5.923913043478261,1.8152173913043477,2.8677438659485337,-9.323758228605625,-0.5290245362058648,4073.260073260073,1881.3186813186812,1.0,6.715932151472221,148.89965792474345,-7.312977099236641,-1.083969465648855,-1.3282442748091603,-0.9250374812593702,0.08395802098950525,-0.45577211394302847,1442.4908424908424,97.04286601352028,31.23984259183053,
1770984077518.113,4.771739130434782,-5.913043478260869,1.8152173913043477,2.834230999401556,-9.292639138240574,-0.5218432076600837,4070.32967032967,1879.8534798534797,1.0,6.715932151472221,148.89965792474345,-8.259541984732824,-0.48854961832061067,-2.1221374045801524,-0.9250374812593702,0.06596701649175413,-0.45277361319340326,1716.4835164835163,97.04001888003155,31.23984259183053,
1770984077537.644,4.760869565217392,-5.945652173913043,1.7717391304347825,2.803111909036505,-9.35966487133453,-0.5816876122082585,4074.7252747252746,1886.4468864468863,1.0,6.710826919886152,149.01293267402056,-7.66412213740458,0.24427480916030533,-2.4427480916030535,-0.9205397301349325,0.06296851574212893,-0.4662668665667166,1978.7545787545787,97.04081363324589,31.244867595011602,
1770984077557.175,4.782608695652174,-5.934782608695652,1.8369565217391304,2.827049670855775,-9.347695990424896,-0.5721125074805505,4049.8168498168498,1849.084249084249,1.0,6.710826919886152,149.01293267402056,-6.854961832061068,0.7480916030534351,-2.2748091603053435,-0.9220389805097451,0.06296851574212893,-0.46026986506746626,2147.252747252747,97.04650794929131,31.244867595011602,
1770984077576.7063,4.804347826086956,-5.923913043478261,1.891304347826087,2.827049670855775,-9.330939557151407,-0.4859365649311789,4046.8864468864467,1838.095238095238,1.0,6.710826919886152,149.01293267402056,-6.671755725190839,0.8091603053435115,-2.2748091603053435,-0.9205397301349325,0.06146926536731634,-0.4512743628185907,2191.208791208791,97.04650794929131,31.244867595011602,
1770984077596.2373,4.760869565217392,-5.934782608695652,1.8804347826086956,2.829443447037702,-9.350089766606821,-0.47875523638539796,4073.260073260073,1868.131868131868,1.0,6.705721688300085,149.1263799010278,-6.427480916030534,1.114503816793893,-1.9541984732824427,-0.9325337331334332,0.0704647676161919,-0.4497751124437781,2109.157509157509,97.04935511150951,31.244867595011602,
1770984077615.7683,4.771739130434782,-6.010869565217392,1.8369565217391304,2.834230999401556,-9.402752842609216,-0.5098743267504489,4063.003663003663,1865.9340659340658,1.0,6.705721688300085,149.1263799010278,-6.122137404580153,1.114503816793893,-1.9389312977099236,-0.9175412293853074,0.07196401799100449,-0.45727136431784104,1942.8571428571427,97.04650794929131,31.244867595011602,
1770984077635.2996,4.760869565217392,-6.032608695652174,1.9021739130434783,2.829443447037702,-9.436265709156194,-0.473967684021544,4073.260073260073,1875.4578754578754,1.0,6.705721688300085,149.1263799010278,-5.465648854961832,1.648854961832061,-1.8015267175572518,-0.9250374812593702,0.0914542728635682,-0.4512743628185907,1732.6007326007325,97.0436607898701,31.244867595011602,
1770984077654.8306,4.760869565217392,-6.010869565217392,1.8804347826086956,2.819868342309994,-9.42429682824656,-0.457211250748055,4073.260073260073,1877.6556776556774,1.0,6.700616456714018,149.24,-5.6183206106870225,1.297709923664122,-2.030534351145038,-0.9205397301349325,0.08995502248875561,-0.46926536731634183,1508.4249084249084,97.0436607898701,31.244867595011602,
1770984077674.3618,4.771739130434782,-6.010869565217392,1.9239130434782608,2.8629563135846796,-9.421903052064632,-0.46199880311190905,4073.260073260073,1878.3882783882782,1.0,6.700616456714018,149.24,-5.480916030534351,1.450381679389313,-2.1068702290076335,-0.9175412293853074,0.06146926536731634,-0.46176911544227883,1298.168498168498,97.04935511150951,31.244867595011602,
1770984077693.8928,4.771739130434782,-6.021739130434782,1.8804347826086956,2.8318372232196287,-9.436265709156194,-0.46918013165769,4073.260073260073,1879.120879120879,1.0,6.69551122512795,149.3537933663744,-5.358778625954198,1.8473282442748091,-2.610687022900763,-0.9175412293853074,0.08095952023988005,-0.46026986506746626,1132.6007326007325,97.0436607898701,31.244867595011602,
1770984077713.4238,4.782608695652174,-5.978260869565217,1.8695652173913042,2.819868342309994,-9.412327947336923,-0.48114901256732495,4049.8168498168498,1846.8864468864467,1.0,6.69551122512795,149.3537933663744,-4.67175572519084,2.183206106870229,-2.610687022900763,-0.9220389805097451,0.0704647676161919,-0.46476761619190404,1019.0476190476189,97.04935511150951,31.244867595011602,
1770984077732.955,4.793478260869565,-5.945652173913043,1.891304347826087,2.8509874326750446,-9.385996409335727,-0.473967684021544,4073.260073260073,1871.0622710622708,1.0,6.69551122512795,149.3537933663744,-3.801526717557252,2.8244274809160306,-2.030534351145038,-0.9220389805097451,0.07496251874062969,-0.45577211394302847,962.6373626373626,97.04650794929131,31.244867595011602,
1770984077752.486,4.804347826086956,-5.945652173913043,1.9021739130434783,2.8509874326750446,-9.352483542788748,-0.457211250748055,4073.260073260073,1876.923076923077,1.0,6.69551122512795,149.3537933663744,-3.6030534351145036,3.0229007633587783,-1.114503816793893,-0.9175412293853074,0.08845577211394302,-0.46926536731634183,953.113553113553,97.04650794929131,31.244867595011602,
1770984077772.017,4.782608695652174,-5.923913043478261,1.9021739130434783,2.8629563135846796,-9.314183123877918,-0.46199880311190905,4063.003663003663,1868.8644688644688,1.0,6.690405993541881,149.46776039679514,-3.618320610687023,4.2748091603053435,-1.0534351145038168,-0.9220389805097451,0.05697151424287856,-0.46176911544227883,985.3479853479853,97.05220227652471,31.244867595011602,
1770984077791.5483,4.815217391304348,-5.923913043478261,1.8478260869565217,2.848593656493118,-9.323758228605625,-0.46439257929383604,4073.260073260073,1876.923076923077,1.0,6.690405993541881,149.46776039679514,-3.9847328244274807,3.9083969465648853,-0.8091603053435115,-0.9175412293853074,0.0914542728635682,-0.4542728635682159,1044.6886446886447,97.05220227652471,31.244867595011602,
1770984077811.079,4.793478260869565,-5.934782608695652,1.8478260869565217,2.858168761220826,-9.345302214242968,-0.5338120885697187,4071.7948717948716,1884.249084249084,1.0,6.685300761955814,149.581901489118,-3.1908396946564883,3.0076335877862594,-0.6259541984732824,-0.9220389805097451,0.07196401799100449,-0.46026986506746626,1120.8791208791208,97.05504944433693,31.244867595011602,
1770984077830.6106,4.83695652173913,-5.9021739130434785,1.7826086956521738,2.865350089766607,-9.309395571514063,-0.5912627169359664,4070.32967032967,1880.5860805860805,1.0,6.690405993541881,149.46776039679514,-1.8778625954198473,2.1526717557251906,-1.6946564885496183,-0.9190404797601199,0.0704647676161919,-0.4662668665667166,1191.2087912087911,97.05220227652471,31.244867595011602,
1770984077850.1416,4.858695652173913,-5.83695652173913,1.7934782608695652,3.044883303411131,-9.28785158587672,-0.5577498503889886,4064.468864468864,1871.0622710622708,1.0,6.685300761955814,149.581901489118,-1.6793893129770991,2.259541984732824,-2.015267175572519,-0.9145427286356821,0.06296851574212893,-0.4587706146926537,1252.7472527472526,97.05220227652471,31.244867595011602,
1770984077869.6729,4.858695652173913,-5.8478260869565215,1.8043478260869565,2.9228007181328546,-9.247157390783961,-0.5577498503889886,4048.3516483516482,1850.5494505494505,1.0,6.685300761955814,149.581901489118,-2.3664122137404577,2.4122137404580153,-1.7709923664122136,-0.9250374812593702,0.0704647676161919,-0.45727136431784104,1291.5750915750914,97.0436607898701,31.244867595011602,
1770984077889.204,4.858695652173913,-5.869565217391304,1.75,2.9228007181328546,-9.22561340514662,-0.5697187312986236,4071.7948717948716,1876.923076923077,1.0,6.685300761955814,149.581901489118,-2.6564885496183206,2.8702290076335877,-2.1374045801526718,-0.9160419790104948,0.06146926536731634,-0.4587706146926537,1306.227106227106,97.04650794929131,31.244867595011602,
1770984077908.7349,4.8478260869565215,-5.8478260869565215,1.717391304347826,2.9180131657690005,-9.2327947336924,-0.6487133453022143,4071.7948717948716,1884.249084249084,1.0,6.685300761955814,149.581901489118,-3.4198473282442747,4.106870229007633,-1.7404580152671756,-0.9175412293853074,0.06446776611694152,-0.46176911544227883,1293.7728937728937,97.04935511150951,31.244867595011602,
1770984077928.266,4.8478260869565215,-5.815217391304348,1.7282608695652173,2.9204069419509273,-9.230400957510472,-0.6750448833034112,4060.07326007326,1870.3296703296703,1.0,6.680195530369747,149.696217042415,-4.030534351145038,4.6106870229007635,-1.8473282442748091,-0.9220389805097451,0.05697151424287856,-0.46326836581709147,1263.003663003663,97.04650794929131,31.244867595011602,
1770984077947.797,4.8478260869565215,-5.83695652173913,1.6956521739130435,2.9180131657690005,-9.230400957510472,-0.6511071214841412,4073.260073260073,1876.923076923077,1.0,6.680195530369747,149.696217042415,-4.519083969465648,5.175572519083969,-2.030534351145038,-0.9220389805097451,0.07646176911544228,-0.45727136431784104,1227.106227106227,97.04935511150951,31.244867595011602,
1770984077967.3284,4.858695652173913,-5.858695652173913,1.75,2.9204069419509273,-9.26391382405745,-0.6439257929383603,4071.7948717948716,1884.249084249084,1.0,6.675090298783678,149.81070745697897,-5.450381679389313,5.816793893129771,-1.7099236641221374,-0.9160419790104948,0.06446776611694152,-0.46326836581709147,1190.4761904761904,97.04650794929131,31.244867595011602,
1770984077986.8594,4.804347826086956,-5.880434782608695,1.75,2.865350089766607,-9.271095152603232,-0.6223818073010173,4071.7948717948716,1886.4468864468863,1.0,6.675090298783678,149.81070745697897,-5.526717557251908,5.236641221374046,-2.213740458015267,-0.9280359820089955,0.06296851574212893,-0.45577211394302847,1158.2417582417581,97.04935511150951,31.244867595011602,
1770984078006.3904,4.8478260869565215,-5.815217391304348,1.7391304347826086,2.8916816277678037,-9.228007181328545,-0.6487133453022143,4073.260073260073,1881.3186813186812,1.0,6.66998506719761,149.92537313432837,-5.450381679389313,5.038167938931298,-2.381679389312977,-0.9295352323838081,0.08245877061469264,-0.46026986506746626,1128.937728937729,97.04935511150951,31.244867595011602,
1770984078025.9216,4.858695652173913,-5.815217391304348,1.7391304347826086,2.9180131657690005,-9.196888090963494,-0.6175942549371634,4048.3516483516482,1853.4798534798533,1.0,6.66998506719761,149.92537313432837,-5.755725190839694,4.213740458015267,-2.732824427480916,-0.9265367316341829,0.08245877061469264,-0.4662668665667166,1103.2967032967033,97.05220227652471,31.244867595011602,
1770984078045.4526,4.869565217391305,-5.8478260869565215,1.7717391304347825,2.9323758228605623,-9.22561340514662,-0.5984440454817475,4045.421245421245,1838.095238095238,1.0,6.66998506719761,149.92537313432837,-6.015267175572519,4.473282442748092,-2.5801526717557253,-0.9250374812593702,0.08545727136431784,-0.46926536731634183,1083.5164835164835,97.04650794929131,31.244867595011602,
1770984078064.9836,4.913043478260869,-5.891304347826087,1.826086956521739,2.9611011370436864,-9.266307600239378,-0.5433871932974267,4071.7948717948716,1873.260073260073,1.0,6.664879835611543,150.0402144772118,-6.33587786259542,4.961832061068702,-3.0839694656488548,-0.9220389805097451,0.06596701649175413,-0.4662668665667166,1070.3296703296703,97.05220227652471,31.244867595011602,
1770984078084.515,4.913043478260869,-5.923913043478261,1.8369565217391304,2.98982645122681,-9.323758228605625,-0.5098743267504489,4058.6080586080584,1860.8058608058607,1.0,6.664879835611543,150.0402144772118,-7.083969465648854,5.648854961832061,-3.16030534351145,-0.9325337331334332,0.06296851574212893,-0.4497751124437781,1073.260073260073,97.04935511150951,31.244867595011602,
1770984078104.046,4.891304347826087,-5.956521739130435,1.8043478260869565,2.9587073608617596,-9.371633752244165,-0.5601436265709157,4074.7252747252746,1880.5860805860805,1.0,6.664879835611543,150.0402144772118,-6.931297709923664,5.786259541984733,-2.778625954198473,-0.9265367316341829,0.07346326836581708,-0.45577211394302847,1085.7142857142856,97.04650794929131,31.244867595011602,
1770984078123.5771,4.869565217391305,-6.010869565217392,1.826086956521739,2.9323758228605623,-9.400359066427288,-0.5457809694793536,4073.260073260073,1879.120879120879,1.0,6.664879835611543,150.0402144772118,-6.900763358778626,5.755725190839694,-2.763358778625954,-0.9250374812593702,0.06296851574212893,-0.45277361319340326,1095.2380952380952,97.05220227652471,31.244867595011602,
1770984078143.1082,4.869565217391305,-5.967391304347826,1.9239130434782608,2.9491322561340514,-9.409934171154998,-0.457211250748055,4073.260073260073,1879.120879120879,1.0,6.664879835611543,150.0402144772118,-6.381679389312977,5.190839694656488,-2.916030534351145,-0.9220389805097451,0.06296851574212893,-0.4497751124437781,1101.098901098901,97.04650794929131,31.244867595011602,
1770984078162.6392,4.8478260869565215,-5.891304347826087,1.9130434782608696,2.9251944943147814,-9.32854578096948,-0.41172950329144226,4074.7252747252746,1884.9816849816848,1.0,6.659774604025475,150.15523188961288,-6.106870229007633,4.534351145038168,-3.16030534351145,-0.9310344827586207,0.05697151424287856,-0.45277361319340326,1110.6227106227107,97.05220227652471,31.244867595011602,
1770984078182.1704,4.858695652173913,-5.8478260869565215,1.8804347826086956,2.9156193895870737,-9.271095152603232,-0.4452423698384201,4049.8168498168498,1849.084249084249,1.0,6.659774604025475,150.15523188961288,-5.648854961832061,3.969465648854962,-4.030534351145038,-0.9250374812593702,0.047976011994003,-0.46026986506746626,1115.018315018315,97.04650794929131,31.244867595011602,
1770984078201.7014,4.891304347826087,-5.880434782608695,1.9021739130434783,2.9539198084979055,-9.25673249551167,-0.45960502692998206,4046.8864468864467,1837.3626373626373,1.0,6.659774604025475,150.15523188961288,-5.32824427480916,4.2748091603053435,-3.9847328244274807,-0.9310344827586207,0.05697151424287856,-0.46476761619190404,1115.018315018315,97.04935511150951,31.244867595011602,
1770984078221.233,4.891304347826087,-5.858695652173913,1.9565217391304348,2.9563135846798323,-9.259126271693596,-0.3949730700179533,4073.260073260073,1868.131868131868,1.0,6.654669372439407,150.2704257767549,-4.717557251908397,4.6106870229007635,-4.1679389312977095,-0.9190404797601199,0.05997001499250375,-0.4677661169415292,1144.3223443223442,97.04935511150951,31.244867595011602,
1770984078240.7637,4.869565217391305,-5.83695652173913,1.9782608695652173,2.939557151406343,-9.237582286056254,-0.3734290843806104,4060.07326007326,1865.201465201465,1.0,6.654669372439407,150.2704257767549,-4.259541984732825,5.068702290076335,-3.6030534351145036,-0.9280359820089955,0.06596701649175413,-0.472263868065967,1268.8644688644688,97.04650794929131,31.244867595011602,
1770984078260.295,4.858695652173913,-5.869565217391304,1.934782608695652,2.9180131657690005,-9.285457809694794,-0.4236983842010772,4074.7252747252746,1882.051282051282,1.0,6.6495641408533395,150.38579654510556,-4.7328244274809155,5.6183206106870225,-3.3587786259541983,-0.9325337331334332,0.06746626686656672,-0.46026986506746626,1486.4468864468863,97.05220227652471,31.244867595011602,
1770984078279.826,4.858695652173913,-5.945652173913043,1.858695652173913,2.9156193895870737,-9.316576900059845,-0.457211250748055,4073.260073260073,1880.5860805860805,1.0,6.6495641408533395,150.38579654510556,-4.641221374045801,5.2824427480916025,-2.7022900763358777,-0.9235382308845577,0.06446776611694152,-0.46176911544227883,1739.9267399267399,97.04650794929131,31.244867595011602,
1770984078299.357,4.8478260869565215,-5.913043478260869,1.8695652173913042,2.9275882704967087,-9.345302214242968,-0.48354278874925194,4073.260073260073,1879.8534798534797,1.0,6.6444589092672715,150.50134460238186,-3.49618320610687,4.412213740458015,-2.610687022900763,-0.9265367316341829,0.06596701649175413,-0.46026986506746626,1964.8351648351647,97.04935511150951,31.244867595011602,
1770984078318.8882,4.880434782608695,-5.891304347826087,1.8695652173913042,2.9467384799521246,-9.302214242968283,-0.473967684021544,4073.260073260073,1879.8534798534797,1.0,6.6444589092672715,150.50134460238186,-2.7938931297709924,4.580152671755725,-2.763358778625954,-0.9280359820089955,0.05397301349325337,-0.46476761619190404,2098.901098901099,97.0436607898701,31.244867595011602,
1770984078338.4192,4.869565217391305,-5.869565217391304,1.8369565217391304,2.9156193895870737,-9.251944943147816,-0.4883303411131059,4049.8168498168498,1846.8864468864467,1.0,6.6444589092672715,150.50134460238186,-2.6564885496183206,4.961832061068702,-3.068702290076336,-0.9220389805097451,0.07196401799100449,-0.46326836581709147,2128.937728937729,97.04935511150951,31.244867595011602,
1770984078357.9502,4.8478260869565215,-5.9021739130434785,1.8043478260869565,2.9228007181328546,-9.299820466786356,-0.5362058647516457,4073.260073260073,1870.3296703296703,1.0,6.6444589092672715,150.50134460238186,-3.3587786259541983,4.427480916030534,-3.114503816793893,-0.9205397301349325,0.07496251874062969,-0.4737631184407796,2052.747252747253,97.04650794929131,31.244867595011602,
1770984078377.4814,4.83695652173913,-5.923913043478261,1.7934782608695652,2.9180131657690005,-9.33572710951526,-0.5505685218432076,4073.260073260073,1876.1904761904761,1.0,6.6393536776812025,150.6170703575548,-3.7557251908396947,4.900763358778626,-3.099236641221374,-0.9205397301349325,0.07196401799100449,-0.46176911544227883,1893.7728937728937,97.04935511150951,31.244867595011602,
1770984078397.0125,4.826086956521739,-5.880434782608695,1.7934782608695652,2.877318970676242,-9.297426690604429,-0.5577498503889886,4058.6080586080584,1860.8058608058607,1.0,6.6393536776812025,150.6170703575548,-3.2061068702290076,5.114503816793893,-2.6412213740458013,-0.9265367316341829,0.08095952023988005,-0.46026986506746626,1700.3663003663003,97.04650794929131,31.244867595011602,
1770984078416.5437,4.804347826086956,-5.83695652173913,1.8152173913043477,2.853381208856972,-9.249551166965889,-0.5673249551166966,4073.260073260073,1873.9926739926739,1.0,6.6393536776812025,150.6170703575548,-3.679389312977099,5.694656488549618,-2.3206106870229006,-0.9310344827586207,0.05397301349325337,-0.46176911544227883,1502.5641025641025,97.04935511150951,31.244867595011602,
1770984078436.0747,4.804347826086956,-5.869565217391304,1.8478260869565217,2.8509874326750446,-9.254338719329743,-0.5338120885697187,4073.260073260073,1877.6556776556774,1.0,6.634248446095136,150.73297422085417,-4.412213740458015,5.129770992366412,-2.0763358778625953,-0.9280359820089955,0.08695652173913043,-0.4752623688155922,1309.89010989011,97.04081363324589,31.244867595011602,
1770984078455.6057,4.782608695652174,-5.989130434782608,1.7934782608695652,2.836624775583483,-9.342908438061041,-0.5433871932974267,4071.7948717948716,1884.249084249084,1.0,6.634248446095136,150.73297422085417,-5.068702290076335,3.8625954198473282,-1.984732824427481,-0.9250374812593702,0.07196401799100449,-0.4662668665667166,1147.985347985348,97.0436607898701,31.244867595011602,
1770984078475.137,4.739130434782608,-6.065217391304348,1.7391304347826086,2.805505685218432,-9.4721723518851,-0.6104129263913823,4073.260073260073,1873.9926739926739,1.0,6.634248446095136,150.73297422085417,-4.152671755725191,2.198473282442748,-1.7099236641221374,-0.9265367316341829,0.05847076461769115,-0.46176911544227883,1031.5018315018315,97.04650794929131,31.244867595011602,
1770984078494.668,4.760869565217392,-5.967391304347826,1.7826086956521738,2.805505685218432,-9.402752842609216,-0.6247755834829444,4049.8168498168498,1845.4212454212452,1.0,6.634248446095136,150.73297422085417,-2.778625954198473,0.7633587786259541,-1.816793893129771,-0.9295352323838081,0.06146926536731634,-0.4677661169415292,978.0219780219779,97.04935511150951,31.244867595011602,
1770984078514.1992,4.760869565217392,-5.8478260869565215,1.8369565217391304,2.817474566128067,-9.283064033512867,-0.5362058647516457,4073.260073260073,1870.3296703296703,1.0,6.629143214509068,150.8490566037736,-2.4885496183206106,-0.183206106870229,-2.229007633587786,-0.9325337331334332,0.06446776611694152,-0.46176911544227883,987.5457875457874,97.04650794929131,31.244867595011602,
1770984078533.7302,4.804347826086956,-5.83695652173913,1.8695652173913042,2.846199880311191,-9.2327947336924,-0.5074805505685218,4073.260073260073,1876.1904761904761,1.0,6.629143214509068,150.8490566037736,-3.114503816793893,-0.21374045801526717,-2.3664122137404577,-0.9265367316341829,0.06446776611694152,-0.46476761619190404,1046.1538461538462,97.04571314980596,31.23984259183053,
1770984078553.2612,4.760869565217392,-5.9021739130434785,1.8695652173913042,2.822262118491921,-9.285457809694794,-0.4859365649311789,4055.6776556776554,1854.9450549450548,1.0,6.629143214509068,150.8490566037736,-4.458015267175572,0.15267175572519084,-2.33587786259542,-0.9325337331334332,0.06446776611694152,-0.46926536731634183,1120.14652014652,97.04571314980596,31.23984259183053,
1770984078572.7925,4.717391304347826,-5.913043478260869,1.8695652173913042,2.7695990424895274,-9.302214242968283,-0.5050867743865949,4073.260073260073,1872.5274725274724,1.0,6.629143214509068,150.8490566037736,-4.473282442748092,-0.015267175572519083,-1.8931297709923662,-0.9340329835082458,0.05847076461769115,-0.46926536731634183,1192.6739926739926,97.05140743076822,31.23984259183053,
1770984078592.3235,4.717391304347826,-5.858695652173913,1.8804347826086956,2.7648114901256733,-9.254338719329743,-0.48114901256732495,4073.260073260073,1877.6556776556774,1.0,6.624037982923,150.96531791907515,-4.259541984732825,-0.47328244274809156,-1.1450381679389312,-0.9295352323838081,0.05547226386806597,-0.4662668665667166,1249.084249084249,97.04286601352028,31.23984259183053,
1770984078611.8545,4.782608695652174,-5.8478260869565215,1.9130434782608696,2.812687013764213,-9.247157390783961,-0.41172950329144226,4070.32967032967,1878.3882783882782,1.0,6.629143214509068,150.8490566037736,-4.473282442748092,-0.5954198473282443,-0.6412213740458015,-0.9370314842578711,0.05997001499250375,-0.46476761619190404,1270.3296703296703,97.04571314980596,31.23984259183053,
1770984078631.3855,4.83695652173913,-5.880434782608695,1.9239130434782608,2.865350089766607,-9.268701376421305,-0.41651705565529623,4073.260073260073,1879.8534798534797,1.0,6.624037982923,150.96531791907515,-4.106870229007633,-0.6259541984732824,-0.16793893129770993,-0.9235382308845577,0.07346326836581708,-0.46026986506746626,1271.062271062271,97.04571314980596,31.23984259183053,
1770984078650.9167,4.858695652173913,-5.858695652173913,1.9782608695652173,2.9036505086774387,-9.278276481149012,-0.41172950329144226,4049.8168498168498,1847.6190476190475,1.0,6.624037982923,150.96531791907515,-4.045801526717557,-0.9312977099236641,0.0,-0.9295352323838081,0.06596701649175413,-0.45577211394302847,1263.7362637362637,97.04856028888861,31.23984259183053,
1770984078670.448,4.858695652173913,-5.8478260869565215,2.0217391304347827,2.9251944943147814,-9.237582286056254,-0.3518850987432675,4073.260073260073,1870.3296703296703,1.0,6.624037982923,150.96531791907515,-3.32824427480916,-0.1984732824427481,1.1603053435114503,-0.9175412293853074,0.08545727136431784,-0.4587706146926537,1259.3406593406592,97.04571314980596,31.23984259183053,
1770984078689.979,4.869565217391305,-5.858695652173913,1.9565217391304348,2.9108318372232196,-9.244763614602034,-0.3758228605625374,4074.7252747252746,1882.7838827838827,1.0,6.624037982923,150.96531791907515,-4.091603053435114,-0.564885496183206,0.7175572519083969,-0.9265367316341829,0.06446776611694152,-0.46926536731634183,1233.6996336996335,97.04571314980596,31.23984259183053,
1770984078709.51,4.8478260869565215,-5.891304347826087,1.9456521739130435,2.9371633752244164,-9.299820466786356,-0.38061041292639136,4055.6776556776554,1856.4102564102564,1.0,6.624037982923,150.96531791907515,-4.290076335877862,-1.0076335877862594,1.0076335877862594,-0.9310344827586207,0.08545727136431784,-0.46926536731634183,1191.2087912087911,97.04571314980596,31.23984259183053,
1770984078729.0413,4.913043478260869,-5.891304347826087,1.967391304347826,2.9850388988629564,-9.295032914422501,-0.4045481747456613,4045.421245421245,1838.8278388278386,1.0,6.624037982923,150.96531791907515,-3.2519083969465647,-1.2061068702290076,0.6870229007633587,-0.9235382308845577,0.07796101949025487,-0.4752623688155922,1149.4505494505493,97.04286601352028,31.23984259183053,
1770984078748.5725,4.978260869565217,-5.83695652173913,1.9891304347826086,3.020945541591861,-9.251944943147816,-0.3590664272890485,4073.260073260073,1868.131868131868,1.0,6.624037982923,150.96531791907515,-3.2213740458015265,-1.2213740458015268,1.2213740458015268,-0.9250374812593702,0.06146926536731634,-0.46026986506746626,1121.6117216117216,97.04571314980596,31.23984259183053,
1770984078768.1035,4.934782608695652,-5.880434782608695,1.9456521739130435,3.042489527229204,-9.254338719329743,-0.3758228605625374,4073.260073260073,1876.1904761904761,1.0,6.624037982923,150.96531791907515,-3.297709923664122,-0.6564885496183206,1.83206106870229,-0.9280359820089955,0.07946026986506746,-0.46176911544227883,1106.227106227106,97.04286601352028,31.23984259183053,
1770984078787.6345,4.978260869565217,-5.869565217391304,1.9456521739130435,3.042489527229204,-9.278276481149012,-0.4380610412926391,4060.07326007326,1868.131868131868,1.0,6.624037982923,150.96531791907515,-3.114503816793893,0.21374045801526717,1.3435114503816794,-0.9250374812593702,0.06446776611694152,-0.46476761619190404,1100.3663003663003,97.05140743076822,31.23984259183053,
1770984078807.1655,4.967391304347826,-5.858695652173913,1.9782608695652173,3.049670855774985,-9.271095152603232,-0.3877917414721723,4073.260073260073,1876.1904761904761,1.0,6.618932751336932,151.08175858079446,-2.687022900763359,1.3740458015267174,1.450381679389313,-0.9295352323838081,0.06596701649175413,-0.45727136431784104,1108.4249084249084,97.04571314980596,31.23984259183053,
1770984078826.6968,4.945652173913043,-5.858695652173913,1.9239130434782608,3.030520646319569,-9.247157390783961,-0.3997606223818073,4046.8864468864467,1845.4212454212452,1.0,6.618932751336932,151.08175858079446,-3.236641221374046,1.2213740458015268,0.7022900763358778,-0.9220389805097451,0.06446776611694152,-0.4677661169415292,1125.2747252747251,97.04286601352028,31.23984259183053,
1770984078846.2278,4.956521739130435,-5.880434782608695,1.8695652173913042,2.9850388988629564,-9.261520047875523,-0.476361460203471,4074.7252747252746,1876.1904761904761,1.0,6.618932751336932,151.08175858079446,-3.4351145038167936,0.8244274809160305,0.21374045801526717,-0.9295352323838081,0.05397301349325337,-0.46026986506746626,1148.7179487179487,97.04856028888861,31.23984259183053,
1770984078865.759,4.945652173913043,-5.880434782608695,1.891304347826087,3.001795332136445,-9.26391382405745,-0.48354278874925194,4055.6776556776554,1854.212454212454,1.0,6.618932751336932,151.08175858079446,-3.145038167938931,0.07633587786259542,0.04580152671755725,-0.9280359820089955,0.05997001499250375,-0.46176911544227883,1161.904761904762,97.04571314980596,31.23984259183053,
1770984078885.29,4.945652173913043,-5.9021739130434785,1.934782608695652,3.0041891083183723,-9.295032914422501,-0.42848593656493117,4074.7252747252746,1879.120879120879,1.0,6.613827519750864,151.19837900424548,-2.946564885496183,0.22900763358778625,-0.07633587786259542,-0.9205397301349325,0.06446776611694152,-0.46026986506746626,1175.0915750915751,97.04856028888861,31.23984259183053,
1770984078904.821,4.967391304347826,-5.880434782608695,1.9021739130434783,3.023339317773788,-9.299820466786356,-0.457211250748055,4074.7252747252746,1885.7142857142856,1.0,6.618932751336932,151.08175858079446,-3.541984732824427,0.0,-1.5267175572519083,-0.9310344827586207,0.07196401799100449,-0.46026986506746626,1174.3589743589744,97.05140743076822,31.23984259183053,
1770984078924.3523,4.956521739130435,-5.891304347826087,1.8478260869565217,3.032914422501496,-9.297426690604429,-0.5122681029323758,4073.260073260073,1881.3186813186812,1.0,6.618932751336932,151.08175858079446,-3.312977099236641,0.015267175572519083,-1.465648854961832,-0.9295352323838081,0.06896551724137931,-0.48125937031484256,1155.3113553113553,97.04571314980596,31.23984259183053,
1770984078943.8833,4.945652173913043,-5.9021739130434785,1.858695652173913,3.006582884500299,-9.292639138240574,-0.4883303411131059,4073.260073260073,1879.8534798534797,1.0,6.618932751336932,151.08175858079446,-3.5877862595419847,0.8702290076335878,-1.83206106870229,-0.9190404797601199,0.06596701649175413,-0.45727136431784104,1141.3919413919414,97.04286601352028,31.23984259183053,
1770984078963.4146,4.923913043478261,-5.891304347826087,1.9021739130434783,2.982645122681029,-9.307001795332136,-0.46199880311190905,4071.7948717948716,1885.7142857142856,1.0,6.618932751336932,151.08175858079446,-3.618320610687023,0.9618320610687022,-2.015267175572519,-0.9220389805097451,0.04947526236881559,-0.4752623688155922,1175.8241758241757,97.04286601352028,31.23984259183053,
1770984078982.9456,4.880434782608695,-5.858695652173913,1.9021739130434783,2.951526032315978,-9.273488928785158,-0.457211250748055,4073.260073260073,1881.3186813186812,1.0,6.613827519750864,151.19837900424548,-3.2519083969465647,1.2671755725190839,-2.6412213740458013,-0.9280359820089955,0.05697151424287856,-0.4737631184407796,1280.5860805860805,97.04856028888861,31.23984259183053,
1770984079002.4766,4.880434782608695,-5.826086956521739,1.9021739130434783,2.9180131657690005,-9.21603830041891,-0.45002992220227406,4073.260073260073,1880.5860805860805,1.0,6.618932751336932,151.08175858079446,-3.312977099236641,1.5114503816793892,-3.0076335877862594,-0.9250374812593702,0.06146926536731634,-0.46926536731634183,1456.4102564102564,97.04571314980596,31.23984259183053,
1770984079022.0078,4.8478260869565215,-5.858695652173913,1.9021739130434783,2.8988629563135846,-9.242369838420107,-0.44763614602034707,4055.6776556776554,1856.4102564102564,1.0,6.613827519750864,151.19837900424548,-4.259541984732825,1.7099236641221374,-3.1755725190839694,-0.9310344827586207,0.05997001499250375,-0.4587706146926537,1678.3882783882782,97.04001888003155,31.23984259183053,
1770984079041.5388,4.826086956521739,-5.891304347826087,1.8695652173913042,2.8797127468581687,-9.295032914422501,-0.48114901256732495,4074.7252747252746,1879.120879120879,1.0,6.613827519750864,151.19837900424548,-4.290076335877862,1.099236641221374,-3.450381679389313,-0.9250374812593702,0.07196401799100449,-0.46176911544227883,1888.6446886446886,97.04571314980596,31.23984259183053,
1770984079061.0698,4.826086956521739,-5.880434782608695,1.891304347826087,2.8821065230400955,-9.28785158587672,-0.4955116696588869,4073.260073260073,1879.120879120879,1.0,6.613827519750864,151.19837900424548,-3.9541984732824424,0.6870229007633587,-3.450381679389313,-0.9310344827586207,0.07196401799100449,-0.472263868065967,2021.9780219780218,97.04286601352028,31.23984259183053,
1770984079080.601,4.804347826086956,-5.8478260869565215,1.891304347826087,2.853381208856972,-9.254338719329743,-0.45960502692998206,4071.7948717948716,1884.9816849816848,1.0,6.613827519750864,151.19837900424548,-3.4351145038167936,1.1603053435114503,-3.3893129770992365,-0.9280359820089955,0.08695652173913043,-0.4707646176911544,2042.4908424908424,97.04856028888861,31.23984259183053,
1770984079100.132,4.793478260869565,-5.858695652173913,1.9239130434782608,2.827049670855775,-9.249551166965889,-0.45242369838420105,4074.7252747252746,1887.179487179487,1.0,6.613827519750864,151.19837900424548,-3.9847328244274807,1.3587786259541985,-2.916030534351145,-0.9295352323838081,0.05697151424287856,-0.4542728635682159,1969.9633699633698,97.05140743076822,31.23984259183053,
1770984079119.663,4.782608695652174,-5.880434782608695,1.934782608695652,2.8509874326750446,-9.268701376421305,-0.43087971274685816,4051.282051282051,1855.6776556776556,1.0,6.613827519750864,151.19837900424548,-4.442748091603053,1.5877862595419847,-3.236641221374046,-0.9280359820089955,0.06896551724137931,-0.4752623688155922,1819.7802197802196,97.04286601352028,31.23984259183053,
1770984079139.1943,4.75,-5.9021739130434785,1.8695652173913042,2.812687013764213,-9.297426690604429,-0.4452423698384201,4074.7252747252746,1878.3882783882782,1.0,6.613827519750864,151.19837900424548,-4.870229007633587,1.5877862595419847,-2.595419847328244,-0.9355322338830584,0.0704647676161919,-0.45577211394302847,1617.5824175824175,97.04286601352028,31.23984259183053,
1770984079158.725,4.760869565217392,-5.923913043478261,1.8369565217391304,2.786355475763016,-9.321364452423698,-0.5170556552962298,4073.260073260073,1879.120879120879,1.0,6.608722288164796,151.3151796060255,-5.007633587786259,1.2366412213740459,-2.732824427480916,-0.9400299850074962,0.06296851574212893,-0.4677661169415292,1422.7106227106226,97.04856028888861,31.23984259183053,
1770984079178.2566,4.782608695652174,-5.923913043478261,1.891304347826087,2.829443447037702,-9.340514661879114,-0.5074805505685218,4052.7472527472523,1854.212454212454,1.0,6.613827519750864,151.19837900424548,-4.824427480916031,1.0381679389312977,-2.519083969465649,-0.9265367316341829,0.07496251874062969,-0.46026986506746626,1262.2710622710622,97.05425457544479,31.23984259183053,
1770984079197.7876,4.771739130434782,-5.923913043478261,1.9130434782608696,2.824655894673848,-9.323758228605625,-0.4236983842010772,4073.260073260073,1872.5274725274724,1.0,6.608722288164796,151.3151796060255,-4.564885496183206,1.1755725190839694,-2.0763358778625953,-0.9295352323838081,0.06296851574212893,-0.472263868065967,1131.8681318681317,97.04286601352028,31.23984259183053,
1770984079217.3188,4.793478260869565,-5.923913043478261,1.9130434782608696,2.827049670855775,-9.338120885697187,-0.4452423698384201,4073.260073260073,1876.923076923077,1.0,6.608722288164796,151.3151796060255,-4.351145038167939,1.3740458015267174,-1.648854961832061,-0.9235382308845577,0.0914542728635682,-0.4752623688155922,1041.0256410256409,97.04856028888861,31.23984259183053,
1770984079236.85,4.760869565217392,-5.956521739130435,1.8695652173913042,2.829443447037702,-9.354877318970676,-0.48114901256732495,4071.7948717948716,1884.249084249084,1.0,6.608722288164796,151.3151796060255,-4.519083969465648,0.5954198473282443,-1.8778625954198473,-0.9250374812593702,0.06296851574212893,-0.46026986506746626,997.8021978021977,97.04571314980596,31.23984259183053,
1770984079256.3809,4.804347826086956,-5.967391304347826,1.891304347826087,2.829443447037702,-9.35966487133453,-0.45481747456612803,4073.260073260073,1880.5860805860805,1.0,6.608722288164796,151.3151796060255,-4.763358778625954,0.48854961832061067,-1.282442748091603,-0.9265367316341829,0.06896551724137931,-0.45727136431784104,1005.8608058608058,97.04286601352028,31.23984259183053,
1770984079275.912,4.83695652173913,-5.989130434782608,1.934782608695652,2.8868940754039496,-9.3836026331538,-0.457211250748055,4073.260073260073,1879.8534798534797,1.0,6.608722288164796,151.3151796060255,-4.488549618320611,0.13740458015267176,-1.099236641221374,-0.9250374812593702,0.06446776611694152,-0.45577211394302847,1073.260073260073,97.04856028888861,31.23984259183053,
1770984079295.443,4.83695652173913,-5.967391304347826,1.967391304347826,2.9228007181328546,-9.378815080789947,-0.3901855176540993,4045.421245421245,1845.4212454212452,1.0,6.603617056578729,151.4321608040201,-4.870229007633587,0.47328244274809156,-1.4045801526717556,-0.9235382308845577,0.08095952023988005,-0.4707646176911544,1161.904761904762,97.04856028888861,31.23984259183053,
1770984079314.9744,4.815217391304348,-5.923913043478261,1.9456521739130435,2.872531418312388,-9.352483542788748,-0.4045481747456613,4071.7948717948716,1875.4578754578754,1.0,6.608722288164796,151.3151796060255,-4.641221374045801,0.7938931297709924,-1.3282442748091603,-0.9295352323838081,0.08545727136431784,-0.4677661169415292,1230.7692307692307,97.04571314980596,31.23984259183053,
1770984079334.5054,4.804347826086956,-5.923913043478261,1.9239130434782608,2.865350089766607,-9.33572710951526,-0.4380610412926391,4051.282051282051,1852.7472527472526,1.0,6.603617056578729,151.4321608040201,-4.6106870229007635,1.099236641221374,-1.8015267175572518,-0.9280359820089955,0.06746626686656672,-0.45577211394302847,1287.9120879120878,97.04856028888861,31.23984259183053,
1770984079354.0364,4.782608695652174,-5.934782608695652,1.9021739130434783,2.841412327947337,-9.340514661879114,-0.48354278874925194,4073.260073260073,1872.5274725274724,1.0,6.603617056578729,151.4321608040201,-3.9847328244274807,0.8091603053435115,-2.030534351145038,-0.9310344827586207,0.05847076461769115,-0.46476761619190404,1322.3443223443223,97.05425457544479,31.23984259183053,
1770984079373.5676,4.771739130434782,-5.8478260869565215,1.9239130434782608,2.819868342309994,-9.285457809694794,-0.43087971274685816,4073.260073260073,1876.923076923077,1.0,6.603617056578729,151.4321608040201,-2.717557251908397,-0.13740458015267176,-2.015267175572519,-0.9355322338830584,0.05247376311844078,-0.45577211394302847,1330.4029304029302,97.04571314980596,31.23984259183053,
1770984079393.0986,4.782608695652174,-5.869565217391304,1.934782608695652,2.827049670855775,-9.285457809694794,-0.4260921603830042,4071.7948717948716,1884.249084249084,1.0,6.603617056578729,151.4321608040201,-2.8091603053435112,-0.8549618320610687,-2.1221374045801524,-0.9265367316341829,0.06746626686656672,-0.4707646176911544,1320.8791208791208,97.04856028888861,31.23984259183053,
1770984079412.63,4.760869565217392,-5.9021739130434785,1.9130434782608696,2.83901855176541,-9.307001795332136,-0.457211250748055,4052.7472527472523,1855.6776556776556,1.0,6.603617056578729,151.4321608040201,-2.8854961832061066,-0.9770992366412213,-1.8931297709923662,-0.9340329835082458,0.06746626686656672,-0.46176911544227883,1298.168498168498,97.04571314980596,31.23984259183053,
1770984079432.161,4.782608695652174,-5.923913043478261,1.8695652173913042,2.81508078994614,-9.32854578096948,-0.473967684021544,4054.212454212454,1854.212454212454,1.0,6.59851182499266,151.54932301740814,-3.0381679389312977,-0.7633587786259541,-1.8015267175572518,-0.9265367316341829,0.07796101949025487,-0.46926536731634183,1274.7252747252746,97.04001888003155,31.23984259183053,
1770984079451.692,4.739130434782608,-5.923913043478261,1.891304347826087,2.805505685218432,-9.321364452423698,-0.457211250748055,4073.260073260073,1872.5274725274724,1.0,6.603617056578729,151.4321608040201,-3.2213740458015265,-0.5343511450381679,-1.282442748091603,-0.9295352323838081,0.06296851574212893,-0.46926536731634183,1243.956043956044,97.04571314980596,31.23984259183053,
1770984079471.2231,4.75,-5.934782608695652,1.8695652173913042,2.7887492519449433,-9.333333333333334,-0.48354278874925194,4073.260073260073,1884.249084249084,1.0,6.59851182499266,151.54932301740814,-3.709923664122137,-0.6564885496183206,-1.4045801526717556,-0.9325337331334332,0.05397301349325337,-0.4512743628185907,1207.3260073260074,97.05710172291832,31.23984259183053,
1770984079490.7542,4.728260869565217,-5.9021739130434785,1.8695652173913042,2.783961699581089,-9.31897067624177,-0.5002992220227409,4052.7472527472523,1855.6776556776556,1.0,6.59851182499266,151.54932301740814,-3.66412213740458,-0.8854961832061068,-1.114503816793893,-0.9280359820089955,0.08095952023988005,-0.4677661169415292,1172.8937728937728,97.04571314980596,31.23984259183053,
1770984079510.2852,4.739130434782608,-5.858695652173913,1.8478260869565217,2.783961699581089,-9.271095152603232,-0.5577498503889886,4046.8864468864467,1839.5604395604394,1.0,6.593406593406592,151.66666666666669,-3.3587786259541983,-1.083969465648855,-0.9923664122137404,-0.9280359820089955,0.05547226386806597,-0.46476761619190404,1164.102564102564,97.04286601352028,31.23984259183053,
1770984079529.8164,4.760869565217392,-5.869565217391304,1.8478260869565217,2.822262118491921,-9.266307600239378,-0.5218432076600837,4073.260073260073,1868.131868131868,1.0,6.593406593406592,151.66666666666669,-3.282442748091603,-1.1755725190839694,-0.9312977099236641,-0.9295352323838081,0.06896551724137931,-0.46326836581709147,1167.7655677655678,97.04207123971774,31.234817588940494,
1770984079549.3474,4.771739130434782,-5.869565217391304,1.858695652173913,2.810293237582286,-9.285457809694794,-0.49790544584081387,4073.260073260073,1876.1904761904761,1.0,6.593406593406592,151.66666666666669,-3.7557251908396947,-1.0381679389312977,-0.5038167938931297,-0.9280359820089955,0.06896551724137931,-0.472263868065967,1167.032967032967,97.0477654688151,31.234817588940494,
1770984079568.879,4.739130434782608,-5.913043478260869,1.826086956521739,2.779174147217235,-9.297426690604429,-0.5170556552962298,4073.260073260073,1878.3882783882782,1.0,6.593406593406592,151.66666666666669,-3.9847328244274807,-0.7633587786259541,-0.3511450381679389,-0.9280359820089955,0.06596701649175413,-0.46476761619190404,1167.032967032967,97.0477654688151,31.234817588940494,
1770984079588.4097,4.717391304347826,-5.858695652173913,1.7934782608695652,2.771992818671454,-9.28067025733094,-0.5745062836624776,4074.7252747252746,1885.7142857142856,1.0,6.593406593406592,151.66666666666669,-4.549618320610687,-0.7175572519083969,0.04580152671755725,-0.9280359820089955,0.05547226386806597,-0.4707646176911544,1174.3589743589744,97.04491835286795,31.234817588940494,
1770984079607.941,4.75,-5.934782608695652,1.8478260869565217,2.781567923399162,-9.316576900059845,-0.5242369838420108,4074.7252747252746,1887.179487179487,1.0,6.588301361820525,151.78419217357614,-4.687022900763359,-0.8396946564885496,0.3053435114503817,-0.9265367316341829,0.05847076461769115,-0.4677661169415292,1166.3003663003662,97.04491835286795,31.234817588940494,
1770984079627.472,4.782608695652174,-5.923913043478261,1.9021739130434783,2.807899461400359,-9.33572710951526,-0.4859365649311789,4073.260073260073,1881.3186813186812,1.0,6.588301361820525,151.78419217357614,-5.251908396946565,-0.9312977099236641,0.7022900763358778,-0.9295352323838081,0.05847076461769115,-0.46326836581709147,1158.2417582417581,97.05345970910011,31.234817588940494,
1770984079647.003,4.782608695652174,-5.858695652173913,1.858695652173913,2.81508078994614,-9.302214242968283,-0.4859365649311789,4051.282051282051,1854.212454212454,1.0,6.583196130234457,151.9018999612253,-4.778625954198473,-0.9007633587786259,0.6412213740458015,-0.9265367316341829,0.06896551724137931,-0.4707646176911544,1155.3113553113553,97.04491835286795,31.234817588940494,
1770984079666.5342,4.782608695652174,-5.891304347826087,1.8695652173913042,2.81508078994614,-9.28785158587672,-0.4907241172950329,4073.260073260073,1872.5274725274724,1.0,6.583196130234457,151.9018999612253,-5.404580152671755,-0.6717557251908397,0.7022900763358778,-0.9280359820089955,0.06896551724137931,-0.46026986506746626,1150.9157509157508,97.05345970910011,31.234817588940494,
1770984079686.0652,4.760869565217392,-5.913043478260869,1.891304347826087,2.834230999401556,-9.316576900059845,-0.4859365649311789,4074.7252747252746,1883.5164835164833,1.0,6.583196130234457,151.9018999612253,-5.343511450381679,-0.6412213740458015,0.9770992366412213,-0.9280359820089955,0.08095952023988005,-0.472263868065967,1169.230769230769,97.05061258755916,31.234817588940494,
1770984079705.5962,4.771739130434782,-5.869565217391304,1.9130434782608696,2.841412327947337,-9.302214242968283,-0.4452423698384201,4071.7948717948716,1885.7142857142856,1.0,6.57809089864839,152.0197904540163,-4.595419847328244,-1.0229007633587786,0.564885496183206,-0.9265367316341829,0.05697151424287856,-0.4662668665667166,1249.084249084249,97.0477654688151,31.234817588940494,
1770984079725.1274,4.804347826086956,-5.826086956521739,1.9239130434782608,2.8701376421304605,-9.247157390783961,-0.4404548174745661,4074.7252747252746,1887.9120879120878,1.0,6.57809089864839,152.0197904540163,-4.061068702290076,-1.5725190839694656,0.6106870229007634,-0.9205397301349325,0.05847076461769115,-0.46326836581709147,1394.139194139194,97.0477654688151,31.234817588940494,
1770984079744.6584,4.815217391304348,-5.869565217391304,1.9456521739130435,2.8797127468581687,-9.26391382405745,-0.4380610412926391,4057.142857142857,1864.4688644688642,1.0,6.57809089864839,152.0197904540163,-4.519083969465648,-1.648854961832061,0.4580152671755725,-0.9220389805097451,0.07646176911544228,-0.4752623688155922,1587.5457875457873,97.0477654688151,31.234817588940494,
1770984079764.1897,4.815217391304348,-5.923913043478261,1.9239130434782608,2.8964691801316578,-9.316576900059845,-0.4069419509275883,4046.8864468864467,1842.4908424908424,1.0,6.57809089864839,152.0197904540163,-4.931297709923664,-1.6030534351145038,0.2595419847328244,-0.9250374812593702,0.06596701649175413,-0.4752623688155922,1783.8827838827838,97.0477654688151,31.234817588940494,
1770984079783.7207,4.869565217391305,-5.934782608695652,1.9021739130434783,2.9108318372232196,-9.338120885697187,-0.4428485936564931,4073.260073260073,1868.8644688644688,1.0,6.572985667062321,152.13786407766992,-5.038167938931298,-1.3129770992366412,0.16793893129770993,-0.9190404797601199,0.05997001499250375,-0.45577211394302847,1930.4029304029302,97.04207123971774,31.234817588940494,
1770984079803.2517,4.8478260869565215,-5.9021739130434785,1.8804347826086956,2.9132256134051464,-9.338120885697187,-0.45481747456612803,4052.7472527472523,1851.2820512820513,1.0,6.567880435476255,152.25612125923047,-3.847328244274809,-1.129770992366412,-0.7786259541984732,-0.9235382308845577,0.08695652173913043,-0.46926536731634183,2000.7326007326005,97.0477654688151,31.234817588940494,
1770984079822.783,4.869565217391305,-5.923913043478261,1.9021739130434783,2.889287851585877,-9.323758228605625,-0.46439257929383604,4046.8864468864467,1838.8278388278386,1.0,6.567880435476255,152.25612125923047,-4.076335877862595,-1.6030534351145038,-1.4198473282442747,-0.9265367316341829,0.095952023988006,-0.48125937031484256,1980.21978021978,97.04207123971774,31.234817588940494,
1770984079842.314,4.826086956521739,-5.945652173913043,1.9130434782608696,2.9084380610412928,-9.35966487133453,-0.42848593656493117,4073.260073260073,1868.131868131868,1.0,6.567880435476255,152.25612125923047,-4.030534351145038,-1.618320610687023,-1.7099236641221374,-0.9175412293853074,0.06296851574212893,-0.45277361319340326,1878.3882783882782,97.0477654688151,31.234817588940494,
1770984079861.8452,4.83695652173913,-5.934782608695652,1.9021739130434783,2.877318970676242,-9.352483542788748,-0.44763614602034707,4073.260073260073,1876.1904761904761,1.0,6.562775203890187,152.37456242707117,-3.801526717557252,-0.7786259541984732,-1.816793893129771,-0.9220389805097451,0.06146926536731634,-0.4662668665667166,1717.9487179487178,97.05630683343799,31.234817588940494,
1770984079881.3762,4.804347826086956,-5.9021739130434785,1.8695652173913042,2.841412327947337,-9.321364452423698,-0.45242369838420105,4049.8168498168498,1846.153846153846,1.0,6.562775203890187,152.37456242707117,-3.8931297709923665,-1.3893129770992365,-2.0763358778625953,-0.9220389805097451,0.07646176911544228,-0.4752623688155922,1532.6007326007325,97.04491835286795,31.234817588940494,
1770984079900.9072,4.771739130434782,-5.880434782608695,1.858695652173913,2.817474566128067,-9.297426690604429,-0.5050867743865949,4060.07326007326,1859.3406593406592,1.0,6.562775203890187,152.37456242707117,-3.49618320610687,-1.1908396946564885,-2.229007633587786,-0.9220389805097451,0.06446776611694152,-0.4662668665667166,1360.4395604395604,97.05061258755916,31.234817588940494,
1770984079920.4385,4.760869565217392,-5.913043478260869,1.8478260869565217,2.829443447037702,-9.321364452423698,-0.5146618791143028,4073.260073260073,1873.9926739926739,1.0,6.557669972304119,152.4931880108992,-3.6946564885496183,-1.2366412213740459,-2.045801526717557,-0.9340329835082458,0.0704647676161919,-0.46176911544227883,1218.3150183150183,97.04491835286795,31.234817588940494,
1770984079939.9695,4.739130434782608,-5.913043478260869,1.8478260869565217,2.819868342309994,-9.31897067624177,-0.5242369838420108,4071.7948717948716,1882.7838827838827,1.0,6.557669972304119,152.4931880108992,-3.2213740458015265,-1.3282442748091603,-2.1374045801526718,-0.9235382308845577,0.08095952023988005,-0.46326836581709147,1116.4835164835165,97.04491835286795,31.234817588940494,
1770984079959.5005,4.739130434782608,-5.880434782608695,1.8695652173913042,2.798324356672651,-9.290245362058647,-0.5026929982046678,4049.8168498168498,1848.3516483516482,1.0,6.557669972304119,152.4931880108992,-3.541984732824427,-1.4045801526717556,-1.83206106870229,-0.9265367316341829,0.05697151424287856,-0.46176911544227883,1057.8754578754579,97.05061258755916,31.234817588940494,
1770984079979.0315,4.75,-5.869565217391304,1.8695652173913042,2.783961699581089,-9.268701376421305,-0.5098743267504489,4046.8864468864467,1837.3626373626373,1.0,6.552564740718051,152.61199844176082,-3.8625954198473282,-1.0534351145038168,-1.8931297709923662,-0.9250374812593702,0.05997001499250375,-0.4707646176911544,1053.4798534798533,97.04207123971774,31.234817588940494,
1770984079998.5627,4.728260869565217,-5.913043478260869,1.8695652173913042,2.779174147217235,-9.285457809694794,-0.5098743267504489,4071.7948717948716,1873.9926739926739,1.0,6.547459509131984,152.73099415204678,-4.229007633587786,-1.129770992366412,-1.7099236641221374,-0.9250374812593702,0.05847076461769115,-0.46176911544227883,1090.10989010989,97.05061258755916,31.234817588940494,
1770984080018.094,4.739130434782608,-5.9021739130434785,1.8369565217391304,2.786355475763016,-9.330939557151407,-0.5098743267504489,4070.32967032967,1876.923076923077,1.0,6.547459509131984,152.73099415204678,-4.122137404580153,-0.8854961832061068,-1.6335877862595418,-0.9220389805097451,0.07946026986506746,-0.4737631184407796,1146.5201465201465,97.0477654688151,31.234817588940494,
1770984080037.625,4.717391304347826,-5.9021739130434785,1.8478260869565217,2.779174147217235,-9.330939557151407,-0.5385996409335727,4048.3516483516482,1852.0146520146518,1.0,6.542354277545915,152.85017557549747,-4.33587786259542,-0.6106870229007634,-1.8778625954198473,-0.9220389805097451,0.06446776611694152,-0.48125937031484256,1205.128205128205,97.0477654688151,31.234817588940494,
1770984080057.156,4.706521739130435,-5.913043478260869,1.8804347826086956,2.7767803710353083,-9.295032914422501,-0.48354278874925194,4071.7948717948716,1876.923076923077,1.0,6.547459509131984,152.73099415204678,-4.351145038167939,-0.5190839694656488,-1.7709923664122136,-0.9250374812593702,0.06746626686656672,-0.4677661169415292,1252.014652014652,97.0477654688151,31.234817588940494,
1770984080076.6873,4.695652173913043,-5.934782608695652,1.8695652173913042,2.7456612806702574,-9.316576900059845,-0.5002992220227409,4073.260073260073,1878.3882783882782,1.0,6.542354277545915,152.85017557549747,-4.580152671755725,-1.297709923664122,-1.648854961832061,-0.9235382308845577,0.09295352323838081,-0.4677661169415292,1287.9120879120878,97.05061258755916,31.234817588940494,
1770984080096.2185,4.717391304347826,-5.956521739130435,1.8804347826086956,2.736086175942549,-9.352483542788748,-0.4955116696588869,4071.7948717948716,1884.9816849816848,1.0,6.537249045959848,152.96954314720813,-4.244274809160305,-2.0,-1.648854961832061,-0.9145427286356821,0.06446776611694152,-0.45727136431784104,1304.7619047619046,97.04491835286795,31.234817588940494,
1770984080115.7495,4.75,-5.934782608695652,1.891304347826087,2.79114302812687,-9.347695990424896,-0.471573907839617,4049.8168498168498,1849.084249084249,1.0,6.537249045959848,152.96954314720813,-4.045801526717557,-1.8778625954198473,-1.4961832061068703,-0.9265367316341829,0.04947526236881559,-0.46176911544227883,1309.1575091575091,97.0477654688151,31.234817588940494,
1770984080135.2805,4.771739130434782,-5.9021739130434785,1.9130434782608696,2.822262118491921,-9.31897067624177,-0.45481747456612803,4074.7252747252746,1876.923076923077,1.0,6.53214381437378,153.08909730363422,-3.7251908396946565,-1.7709923664122136,-1.3282442748091603,-0.9235382308845577,0.06596701649175413,-0.46026986506746626,1304.0293040293038,97.05061258755916,31.234817588940494,
1770984080154.8115,4.782608695652174,-5.956521739130435,1.891304347826087,2.827049670855775,-9.321364452423698,-0.4380610412926391,4073.260073260073,1879.120879120879,1.0,6.53214381437378,153.08909730363422,-4.137404580152672,-0.9312977099236641,-1.5114503816793892,-0.9250374812593702,0.05847076461769115,-0.45727136431784104,1288.6446886446886,97.05061258755916,31.234817588940494,
1770984080174.3428,4.771739130434782,-5.967391304347826,1.9021739130434783,2.810293237582286,-9.37642130460802,-0.4452423698384201,4073.260073260073,1879.120879120879,1.0,6.527038582787711,153.2088384825968,-4.091603053435114,-0.7022900763358778,-1.7251908396946565,-0.9235382308845577,0.06896551724137931,-0.46326836581709147,1263.7362637362637,97.04491835286795,31.234817588940494,
1770984080193.8738,4.760869565217392,-5.923913043478261,1.9130434782608696,2.805505685218432,-9.37642130460802,-0.45481747456612803,4049.8168498168498,1846.8864468864467,1.0,6.527038582787711,153.2088384825968,-3.9236641221374042,-0.9465648854961831,-1.4351145038167938,-0.9190404797601199,0.06296851574212893,-0.45577211394302847,1228.5714285714284,97.0477654688151,31.234817588940494,
1770984080213.405,4.760869565217392,-5.9021739130434785,1.9239130434782608,2.807899461400359,-9.32854578096948,-0.43566726511071213,4063.003663003663,1860.8058608058607,1.0,6.5219333512016435,153.32876712328766,-3.450381679389313,-1.2213740458015268,-1.6946564885496183,-0.9205397301349325,0.08845577211394302,-0.4677661169415292,1194.8717948717947,97.05345970910011,31.234817588940494,
1770984080232.936,4.793478260869565,-5.880434782608695,1.9130434782608696,2.829443447037702,-9.285457809694794,-0.45481747456612803,4073.260073260073,1873.9926739926739,1.0,6.5168281196155755,153.44888366627498,-3.282442748091603,-0.9923664122137404,-1.648854961832061,-0.9205397301349325,0.08995502248875561,-0.4677661169415292,1167.032967032967,97.04491835286795,31.234817588940494,
1770984080252.467,4.793478260869565,-5.923913043478261,1.9239130434782608,2.83901855176541,-9.326152004787552,-0.4213046080191502,4073.260073260073,1877.6556776556774,1.0,6.5168281196155755,153.44888366627498,-3.5877862595419847,-0.41221374045801523,-1.7251908396946565,-0.9205397301349325,0.07346326836581708,-0.46326836581709147,1161.1721611721612,97.05061258755916,31.234817588940494,
1770984080271.9983,4.771739130434782,-5.956521739130435,1.9239130434782608,2.836624775583483,-9.37642130460802,-0.4404548174745661,4051.282051282051,1852.7472527472526,1.0,6.5168281196155755,153.44888366627498,-3.4045801526717554,-0.48854961832061067,-1.816793893129771,-0.9205397301349325,0.07346326836581708,-0.46476761619190404,1172.161172161172,97.05061258755916,31.234817588940494,
1770984080291.5293,4.717391304347826,-5.923913043478261,1.8695652173913042,2.7767803710353083,-9.357271095152603,-0.5098743267504489,4074.7252747252746,1878.3882783882782,1.0,6.5117228880295075,153.56918855350844,-2.916030534351145,-1.0687022900763359,-1.5725190839694656,-0.9190404797601199,0.06446776611694152,-0.45577211394302847,1174.3589743589744,97.0477654688151,31.234817588940494,
1770984080311.0603,4.75,-5.923913043478261,1.8695652173913042,2.805505685218432,-9.342908438061041,-0.4931178934769599,4073.260073260073,1878.3882783882782,1.0,6.5117228880295075,153.56918855350844,-2.3206106870229006,-2.015267175572519,-1.465648854961832,-0.9205397301349325,0.06746626686656672,-0.4587706146926537,1164.102564102564,97.0477654688151,31.234817588940494,
1770984080330.5916,4.782608695652174,-5.978260869565217,1.9021739130434783,2.81508078994614,-9.393177737881508,-0.4380610412926391,4071.7948717948716,1884.9816849816848,1.0,6.5066176564434395,153.68968222832484,-2.6717557251908395,-1.8931297709923662,-1.7557251908396947,-0.9250374812593702,0.06296851574212893,-0.46026986506746626,1151.6483516483515,97.0477654688151,31.234817588940494,
1770984080350.1226,4.771739130434782,-5.934782608695652,1.9130434782608696,2.81508078994614,-9.369239976062238,-0.43566726511071213,4073.260073260073,1881.3186813186812,1.0,6.5066176564434395,153.68968222832484,-2.778625954198473,-1.7099236641221374,-1.9236641221374045,-0.9295352323838081,0.05997001499250375,-0.46476761619190404,1142.1245421245421,97.04491835286795,31.234817588940494,
1770984080369.6538,4.760869565217392,-5.934782608695652,1.8478260869565217,2.807899461400359,-9.352483542788748,-0.48354278874925194,4073.260073260073,1879.8534798534797,1.0,6.501512424857372,153.81036513545348,-2.9770992366412212,-1.099236641221374,-2.1374045801526718,-0.9160419790104948,0.05697151424287856,-0.46026986506746626,1135.5311355311355,97.0477654688151,31.234817588940494,
1770984080389.1848,4.739130434782608,-5.934782608695652,1.826086956521739,2.79114302812687,-9.350089766606821,-0.5266307600239377,4073.260073260073,1879.120879120879,1.0,6.496407193271305,153.9312377210216,-2.900763358778626,-1.083969465648855,-1.9389312977099236,-0.9280359820089955,0.07196401799100449,-0.4707646176911544,1136.2637362637363,97.0477654688151,31.234817588940494,
1770984080408.7158,4.717391304347826,-5.9021739130434785,1.9021739130434783,2.786355475763016,-9.340514661879114,-0.4955116696588869,4073.260073260073,1879.8534798534797,1.0,6.496407193271305,153.9312377210216,-2.7022900763358777,-1.4198473282442747,-1.4961832061068703,-0.9205397301349325,0.06296851574212893,-0.45577211394302847,1165.5677655677655,97.0477654688151,31.234817588940494,
1770984080428.247,4.760869565217392,-5.858695652173913,1.8804347826086956,2.783961699581089,-9.297426690604429,-0.46918013165769,4051.282051282051,1853.4798534798533,1.0,6.491301961685236,154.05230043255997,-2.9923664122137406,-0.8244274809160305,-1.129770992366412,-0.9235382308845577,0.07646176911544228,-0.4707646176911544,1240.2930402930401,97.04491835286795,31.234817588940494,
1770984080447.778,4.760869565217392,-5.83695652173913,1.9021739130434783,2.812687013764213,-9.235188509874327,-0.45002992220227406,4074.7252747252746,1878.3882783882782,1.0,6.491301961685236,154.05230043255997,-3.2213740458015265,-0.3511450381679389,-0.8091603053435115,-0.9235382308845577,0.07946026986506746,-0.46926536731634183,1378.7545787545787,97.04491835286795,31.234817588940494,
1770984080467.309,4.760869565217392,-5.891304347826087,1.891304347826087,2.7887492519449433,-9.261520047875523,-0.45242369838420105,4073.260073260073,1872.5274725274724,1.0,6.491301961685236,154.05230043255997,-3.877862595419847,-0.3969465648854962,-0.5038167938931297,-0.9205397301349325,0.05847076461769115,-0.4677661169415292,1563.3699633699632,97.04491835286795,31.234817588940494,
1770984080486.8403,4.760869565217392,-5.923913043478261,1.8695652173913042,2.817474566128067,-9.326152004787552,-0.4859365649311789,4071.7948717948716,1882.7838827838827,1.0,6.48619673009917,154.17355371900825,-3.9389312977099236,0.015267175572519083,-0.13740458015267176,-0.9115442278860569,0.05697151424287856,-0.4587706146926537,1753.113553113553,97.03922412936443,31.234817588940494,
1770984080506.371,4.804347826086956,-5.934782608695652,1.858695652173913,2.8438061041292637,-9.330939557151407,-0.466786355475763,4046.8864468864467,1847.6190476190475,1.0,6.48619673009917,154.17355371900825,-3.9389312977099236,0.32061068702290074,-0.3969465648854962,-0.9205397301349325,0.06146926536731634,-0.4707646176911544,1901.8315018315018,97.05061258755916,31.234817588940494,
1770984080525.9026,4.804347826086956,-5.891304347826087,1.891304347826087,2.865350089766607,-9.330939557151407,-0.466786355475763,4065.9340659340655,1868.131868131868,1.0,6.481091498513101,154.29499803072076,-3.7251908396946565,0.7786259541984732,-0.6106870229007634,-0.9190404797601199,0.07946026986506746,-0.4677661169415292,1971.4285714285713,97.04981774689767,31.2297925863415,
1770984080545.4336,4.815217391304348,-5.923913043478261,1.9130434782608696,2.848593656493118,-9.314183123877918,-0.45481747456612803,4073.260073260073,1876.1904761904761,1.0,6.481091498513101,154.29499803072076,-3.9236641221374042,0.7175572519083969,-0.7480916030534351,-0.9160419790104948,0.07496251874062969,-0.46026986506746626,1942.8571428571427,97.04981774689767,31.2297925863415,
1770984080564.9648,4.793478260869565,-5.913043478260869,1.9021739130434783,2.848593656493118,-9.316576900059845,-0.4260921603830042,4073.260073260073,1878.3882783882782,1.0,6.475986266927033,154.41663381947183,-4.3206106870229,0.9465648854961831,-1.099236641221374,-0.9235382308845577,0.07496251874062969,-0.46476761619190404,1843.956043956044,97.04981774689767,31.2297925863415,
1770984080584.4958,4.793478260869565,-5.869565217391304,1.8804347826086956,2.829443447037702,-9.285457809694794,-0.4404548174745661,4049.8168498168498,1846.8864468864467,1.0,6.470881035340965,154.53846153846155,-4.091603053435114,0.9618320610687022,-0.9312977099236641,-0.9265367316341829,0.06746626686656672,-0.46476761619190404,1688.6446886446886,97.03842938124475,31.2297925863415,
1770984080604.0269,4.793478260869565,-5.869565217391304,1.891304347826087,2.834230999401556,-9.266307600239378,-0.4428485936564931,4046.8864468864467,1837.3626373626373,1.0,6.470881035340965,154.53846153846155,-3.969465648854962,0.47328244274809156,-1.1603053435114503,-0.9265367316341829,0.06896551724137931,-0.46026986506746626,1514.2857142857142,97.04697065128916,31.2297925863415,
1770984080623.558,4.826086956521739,-5.858695652173913,1.8804347826086956,2.8701376421304605,-9.271095152603232,-0.471573907839617,4071.7948717948716,1872.5274725274724,1.0,6.465775803754899,154.66048164232134,-4.580152671755725,0.6259541984732824,-1.5877862595419847,-0.9220389805097451,0.08845577211394302,-0.4737631184407796,1356.7765567765566,97.04981774689767,31.2297925863415,
1770984080643.089,4.8478260869565215,-5.891304347826087,1.9456521739130435,2.8868940754039496,-9.302214242968283,-0.41651705565529623,4070.32967032967,1876.923076923077,1.0,6.465775803754899,154.66048164232134,-3.6488549618320607,0.9465648854961831,-1.66412213740458,-0.9220389805097451,0.06296851574212893,-0.46026986506746626,1221.9780219780218,97.04697065128916,31.2297925863415,
1770984080662.6204,4.826086956521739,-5.869565217391304,1.934782608695652,2.8677438659485337,-9.292639138240574,-0.3949730700179533,4071.7948717948716,1884.249084249084,1.0,6.46067057216883,154.78269458711972,-3.66412213740458,0.9770992366412213,-1.8778625954198473,-0.9160419790104948,0.07196401799100449,-0.4662668665667166,1126.7399267399267,97.04981774689767,31.2297925863415,
1770984080682.1514,4.793478260869565,-5.923913043478261,1.9239130434782608,2.872531418312388,-9.314183123877918,-0.40933572710951527,4065.9340659340655,1878.3882783882782,1.0,6.46067057216883,154.78269458711972,-4.427480916030534,1.0534351145038168,-1.7709923664122136,-0.9250374812593702,0.07646176911544228,-0.4737631184407796,1075.4578754578754,97.04697065128916,31.2297925863415,
1770984080701.6824,4.8478260869565215,-6.021739130434782,1.9021739130434783,2.9084380610412928,-9.441053261520048,-0.4428485936564931,4071.7948717948716,1884.249084249084,1.0,6.455565340582762,154.90510083036773,-4.977099236641221,1.3740458015267174,-1.7557251908396947,-0.9220389805097451,0.06446776611694152,-0.45727136431784104,1076.923076923077,97.04697065128916,31.2297925863415,
1770984080721.2136,4.83695652173913,-6.032608695652174,1.9239130434782608,2.8916816277678037,-9.464991023339318,-0.41412327947336924,4071.7948717948716,1886.4468864468863,1.0,6.450460108996694,155.02770083102493,-4.488549618320611,1.8625954198473282,-1.8015267175572518,-0.9235382308845577,0.07946026986506746,-0.46476761619190404,1115.018315018315,97.04697065128916,31.2297925863415,
1770984080740.7446,4.826086956521739,-5.956521739130435,1.9239130434782608,2.8821065230400955,-9.371633752244165,-0.3973668461998803,4048.3516483516482,1854.9450549450548,1.0,6.450460108996694,155.02770083102493,-3.709923664122137,2.610687022900763,-2.091603053435114,-0.9235382308845577,0.06896551724137931,-0.4587706146926537,1160.4395604395604,97.04981774689767,31.2297925863415,
1770984080760.276,4.793478260869565,-5.880434782608695,1.9130434782608696,2.8629563135846796,-9.292639138240574,-0.42848593656493117,4073.260073260073,1872.5274725274724,1.0,6.445354877410627,155.15049504950494,-3.7709923664122136,2.763358778625954,-1.8015267175572518,-0.9235382308845577,0.0944527736131934,-0.46926536731634183,1210.989010989011,97.04412355847747,31.2297925863415,
1770984080779.807,4.782608695652174,-5.858695652173913,1.9021739130434783,2.8629563135846796,-9.26391382405745,-0.4428485936564931,4073.260073260073,1876.923076923077,1.0,6.445354877410627,155.15049504950494,-4.076335877862595,3.480916030534351,-1.9694656488549618,-0.9265367316341829,0.05997001499250375,-0.46326836581709147,1252.7472527472526,97.04981774689767,31.2297925863415,
1770984080799.338,4.739130434782608,-5.826086956521739,1.934782608695652,2.805505685218432,-9.237582286056254,-0.4260921603830042,4071.7948717948716,1884.249084249084,1.0,6.440249645824559,155.2734839476813,-3.83206106870229,3.5572519083969465,-2.427480916030534,-0.9235382308845577,0.07196401799100449,-0.46326836581709147,1286.4468864468863,97.04412355847747,31.2297925863415,
1770984080818.8691,4.706521739130435,-5.815217391304348,1.891304347826087,2.7767803710353083,-9.228007181328545,-0.4213046080191502,4073.260073260073,1881.3186813186812,1.0,6.440249645824559,155.2734839476813,-3.8625954198473282,3.2671755725190836,-2.229007633587786,-0.9265367316341829,0.06596701649175413,-0.45577211394302847,1308.4249084249084,97.04412355847747,31.2297925863415,
1770984080838.4,4.717391304347826,-5.8478260869565215,1.8695652173913042,2.7528426092160383,-9.223219628964692,-0.4428485936564931,4073.260073260073,1879.8534798534797,1.0,6.435144414238491,155.39666798889328,-4.1679389312977095,3.129770992366412,-2.198473282442748,-0.9265367316341829,0.06746626686656672,-0.46326836581709147,1332.6007326007325,97.04412355847747,31.2297925863415,
1770984080857.9312,4.673913043478261,-5.880434782608695,1.891304347826087,2.7408737283064033,-9.249551166965889,-0.48354278874925194,4073.260073260073,1879.8534798534797,1.0,6.435144414238491,155.39666798889328,-4.366412213740458,2.9923664122137406,-2.1221374045801524,-0.9250374812593702,0.06296851574212893,-0.46176911544227883,1330.4029304029302,97.04981774689767,31.2297925863415,
1770984080877.4624,4.6521739130434785,-5.913043478260869,1.8369565217391304,2.6953919808497906,-9.31178934769599,-0.49790544584081387,4073.260073260073,1879.8534798534797,1.0,6.430039182652423,155.52004763795156,-4.641221374045801,2.6259541984732824,-1.5725190839694656,-0.9235382308845577,0.06746626686656672,-0.4707646176911544,1309.1575091575091,97.04412355847747,31.2297925863415,
1770984080896.9934,4.641304347826087,-5.945652173913043,1.826086956521739,2.6642728904847397,-9.340514661879114,-0.5338120885697187,4049.8168498168498,1847.6190476190475,1.0,6.430039182652423,155.52004763795156,-4.519083969465648,1.618320610687023,-1.816793893129771,-0.9235382308845577,0.05847076461769115,-0.46476761619190404,1273.9926739926739,97.04697065128916,31.2297925863415,
1770984080916.525,4.6521739130434785,-5.967391304347826,1.8043478260869565,2.7145421903052065,-9.395571514063436,-0.5553560742070617,4074.7252747252746,1876.923076923077,1.0,6.424933951066355,155.64362336114422,-4.580152671755725,0.549618320610687,-1.984732824427481,-0.9235382308845577,0.07796101949025487,-0.4662668665667166,1235.164835164835,97.04412355847747,31.2297925863415,
1770984080936.0557,4.663043478260869,-5.945652173913043,1.8369565217391304,2.7073608617594256,-9.381208856971872,-0.5218432076600837,4074.7252747252746,1884.9816849816848,1.0,6.419828719480288,155.76739562624255,-4.366412213740458,0.38167938931297707,-1.9541984732824427,-0.9190404797601199,0.06746626686656672,-0.46476761619190404,1200.7326007326008,97.04697065128916,31.2297925863415,
1770984080955.587,4.6521739130434785,-5.967391304347826,1.8369565217391304,2.7073608617594256,-9.354877318970676,-0.5242369838420108,4073.260073260073,1880.5860805860805,1.0,6.419828719480288,155.76739562624255,-4.473282442748092,0.366412213740458,-1.6335877862595418,-0.9370314842578711,0.05997001499250375,-0.46326836581709147,1183.150183150183,97.04981774689767,31.2297925863415,
1770984080975.118,4.6521739130434785,-5.923913043478261,1.7934782608695652,2.6858168761220824,-9.35966487133453,-0.5433871932974267,4046.8864468864467,1846.153846153846,1.0,6.4147234878942205,155.89136490250695,-4.9465648854961835,-0.16793893129770993,-1.9389312977099236,-0.9190404797601199,0.07346326836581708,-0.46176911544227883,1179.4871794871794,97.04981774689767,31.2297925863415,
1770984080994.649,4.6521739130434785,-5.923913043478261,1.891304347826087,2.6953919808497906,-9.33572710951526,-0.4931178934769599,4074.7252747252746,1876.923076923077,1.0,6.4147234878942205,155.89136490250695,-5.175572519083969,0.16793893129770993,-1.7709923664122136,-0.9340329835082458,0.08845577211394302,-0.4542728635682159,1180.952380952381,97.04412355847747,31.2297925863415,
1770984081014.1802,4.5978260869565215,-5.880434782608695,1.8804347826086956,2.6546977857570315,-9.290245362058647,-0.46439257929383604,4073.260073260073,1878.3882783882782,1.0,6.4147234878942205,155.89136490250695,-4.809160305343512,-0.1984732824427481,-1.7099236641221374,-0.9265367316341829,0.05997001499250375,-0.4752623688155922,1189.7435897435896,97.05266484530311,31.2297925863415,
1770984081033.7112,4.58695652173913,-5.891304347826087,1.8478260869565217,2.6307600239377615,-9.304608019150209,-0.5242369838420108,4074.7252747252746,1885.7142857142856,1.0,6.4096182563081525,156.01553166069294,-5.175572519083969,-1.2061068702290076,-1.4198473282442747,-0.9280359820089955,0.05547226386806597,-0.46326836581709147,1200.0,97.04127646846267,31.2297925863415,
1770984081053.2422,4.619565217391305,-5.934782608695652,1.9239130434782608,2.649910233393178,-9.347695990424896,-0.5050867743865949,4049.8168498168498,1849.084249084249,1.0,6.4096182563081525,156.01553166069294,-5.068702290076335,-1.282442748091603,-1.2213740458015268,-0.9280359820089955,0.05847076461769115,-0.4587706146926537,1196.3369963369962,97.04981774689767,31.2297925863415,
1770984081072.7734,4.630434782608695,-5.956521739130435,1.9456521739130435,2.6738479952124474,-9.357271095152603,-0.41172950329144226,4046.8864468864467,1837.3626373626373,1.0,6.4045130247220845,156.13989637305698,-4.961832061068702,-1.2061068702290076,-0.3511450381679389,-0.9265367316341829,0.06146926536731634,-0.4497751124437781,1180.952380952381,97.04697065128916,31.2297925863415,
1770984081092.3044,4.641304347826087,-5.913043478260869,1.9565217391304348,2.6594853381208856,-9.326152004787552,-0.4045481747456613,4074.7252747252746,1873.9926739926739,1.0,6.4045130247220845,156.13989637305698,-4.870229007633587,-0.8091603053435115,0.030534351145038167,-0.9295352323838081,0.06896551724137931,-0.45727136431784104,1169.230769230769,97.04127646846267,31.2297925863415,
1770984081111.8357,4.630434782608695,-5.978260869565217,1.9239130434782608,2.6427289048473965,-9.369239976062238,-0.4260921603830042,4071.7948717948716,1882.7838827838827,1.0,6.399407793136017,156.26445951336257,-5.587786259541985,-0.7175572519083969,0.0916030534351145,-0.9265367316341829,0.07796101949025487,-0.46476761619190404,1161.904761904762,97.05266484530311,31.2297925863415,
1770984081131.3667,4.619565217391305,-6.054347826086956,1.9239130434782608,2.6475164572112506,-9.47935368043088,-0.4045481747456613,4074.7252747252746,1887.179487179487,1.0,6.394302561549949,156.3892215568862,-5.419847328244274,-1.2213740458015268,0.41221374045801523,-0.9355322338830584,0.06896551724137931,-0.4677661169415292,1148.7179487179487,97.04981774689767,31.2297925863415,
1770984081150.8977,4.673913043478261,-6.032608695652174,2.0217391304347827,2.724117295032914,-9.467384799521245,-0.34230999401555956,4049.8168498168498,1849.8168498168498,1.0,6.394302561549949,156.3892215568862,-4.473282442748092,-1.5114503816793892,0.0,-0.9190404797601199,0.08245877061469264,-0.45727136431784104,1161.1721611721612,97.0555119465054,31.2297925863415,
1770984081170.429,4.6521739130434785,-5.956521739130435,2.043478260869565,2.6953919808497906,-9.374027528426092,-0.2824655894673848,4073.260073260073,1871.0622710622708,1.0,6.394302561549949,156.3892215568862,-3.312977099236641,-2.3664122137404577,0.015267175572519083,-0.9235382308845577,0.05547226386806597,-0.4542728635682159,1238.8278388278388,97.04981774689767,31.2297925863415,
1770984081189.96,4.663043478260869,-5.913043478260869,2.0543478260869565,2.7097546379413524,-9.338120885697187,-0.26570915619389585,4074.7252747252746,1883.5164835164833,1.0,6.389197329963881,156.51418298042347,-3.236641221374046,-2.9770992366412212,-0.5801526717557252,-0.9250374812593702,0.05997001499250375,-0.46326836581709147,1388.278388278388,97.04697065128916,31.2297925863415,
1770984081209.4912,4.706521739130435,-5.934782608695652,2.0217391304347827,2.7049670855774983,-9.342908438061041,-0.2896469180131658,4051.282051282051,1854.9450549450548,1.0,6.389197329963881,156.51418298042347,-3.32824427480916,-3.5114503816793894,-1.099236641221374,-0.9190404797601199,0.06596701649175413,-0.45277361319340326,1583.8827838827838,97.04697065128916,31.2297925863415,
1770984081229.0222,4.673913043478261,-5.923913043478261,2.010869565217391,2.7289048473967683,-9.345302214242968,-0.3207660083782166,4074.7252747252746,1879.120879120879,1.0,6.389197329963881,156.51418298042347,-2.9618320610687023,-4.33587786259542,-1.4045801526717556,-0.9160419790104948,0.07196401799100449,-0.45577211394302847,1761.172161172161,97.04697065128916,31.2297925863415,
1770984081248.5532,4.739130434782608,-5.9021739130434785,2.0217391304347827,2.7456612806702574,-9.321364452423698,-0.31837223219628963,4074.7252747252746,1885.7142857142856,1.0,6.384092098377813,156.63934426229508,-2.198473282442748,-4.2748091603053435,-2.0,-0.9220389805097451,0.07196401799100449,-0.46326836581709147,1889.3772893772893,97.04697065128916,31.2297925863415,
1770984081268.0845,4.771739130434782,-5.945652173913043,1.9456521739130435,2.7672052663076,-9.323758228605625,-0.3590664272890485,4074.7252747252746,1887.179487179487,1.0,6.384092098377813,156.63934426229508,-2.259541984732824,-3.847328244274809,-1.9694656488549618,-0.9235382308845577,0.06146926536731634,-0.46176911544227883,1939.194139194139,97.04697065128916,31.2297925863415,
1770984081287.6155,4.75,-6.021739130434782,1.9456521739130435,2.795930580490724,-9.41472172351885,-0.3949730700179533,4046.8864468864467,1848.3516483516482,1.0,6.378986866791745,156.76470588235293,-2.33587786259542,-3.3740458015267176,-0.8854961832061068,-0.9265367316341829,0.06596701649175413,-0.4677661169415292,1901.8315018315018,97.04697065128916,31.2297925863415,
1770984081307.1465,4.771739130434782,-6.032608695652174,1.9021739130434783,2.834230999401556,-9.469778575703172,-0.4260921603830042,4070.32967032967,1870.3296703296703,1.0,6.378986866791745,156.76470588235293,-1.984732824427481,-2.427480916030534,-0.3511450381679389,-0.9220389805097451,0.06146926536731634,-0.46326836581709147,1808.7912087912086,97.04981774689767,31.2297925863415,
1770984081326.6775,4.739130434782608,-6.0,1.934782608695652,2.807899461400359,-9.436265709156194,-0.4260921603830042,4071.7948717948716,1882.051282051282,1.0,6.373881635205676,156.89026832198638,-1.5114503816793892,-1.3129770992366412,0.0916030534351145,-0.9235382308845577,0.05697151424287856,-0.46326836581709147,1667.3992673992673,97.04981774689767,31.2297925863415,
1770984081346.2087,4.739130434782608,-5.989130434782608,1.9239130434782608,2.786355475763016,-9.393177737881508,-0.42848593656493117,4071.7948717948716,1885.7142857142856,1.0,6.373881635205676,156.89026832198638,-1.9083969465648853,-0.8244274809160305,0.07633587786259542,-0.9235382308845577,0.0704647676161919,-0.45727136431784104,1511.3553113553112,97.05266484530311,31.2297925863415,
1770984081365.74,4.760869565217392,-5.989130434782608,1.891304347826087,2.810293237582286,-9.385996409335727,-0.4931178934769599,4051.282051282051,1854.212454212454,1.0,6.373881635205676,156.89026832198638,-2.564885496183206,-0.6870229007633587,-0.0916030534351145,-0.9190404797601199,0.06446776611694152,-0.4662668665667166,1357.5091575091574,97.04981774689767,31.2297925863415,
1770984081385.271,4.728260869565217,-5.945652173913043,1.891304347826087,2.779174147217235,-9.395571514063436,-0.473967684021544,4045.421245421245,1838.8278388278386,1.0,6.368776403619609,157.01603206412824,-2.1068702290076335,0.07633587786259542,-0.3511450381679389,-0.9250374812593702,0.07946026986506746,-0.472263868065967,1222.7106227106226,97.05266484530311,31.2297925863415,
1770984081404.802,4.717391304347826,-5.9021739130434785,1.8695652173913042,2.760023937761819,-9.309395571514063,-0.45481747456612803,4071.7948717948716,1873.260073260073,1.0,6.368776403619609,157.01603206412824,-1.984732824427481,-0.0916030534351145,0.16793893129770993,-0.9235382308845577,0.07346326836581708,-0.4662668665667166,1121.6117216117216,97.04981774689767,31.2297925863415,
1770984081424.3333,4.706521739130435,-5.826086956521739,1.9021739130434783,2.724117295032914,-9.26391382405745,-0.457211250748055,4071.7948717948716,1882.7838827838827,1.0,6.363671172033541,157.14199759326112,-1.984732824427481,0.015267175572519083,0.38167938931297707,-0.9160419790104948,0.06746626686656672,-0.46176911544227883,1060.8058608058607,97.04412355847747,31.2297925863415,
1770984081443.8645,4.739130434782608,-5.858695652173913,1.891304347826087,2.760023937761819,-9.244763614602034,-0.471573907839617,4073.260073260073,1880.5860805860805,1.0,6.358565940447473,157.26816539542352,-2.763358778625954,-0.4580152671755725,0.3053435114503817,-0.9190404797601199,0.05847076461769115,-0.4662668665667166,1035.164835164835,97.04412355847747,31.2297925863415,
1770984081463.3955,4.858695652173913,-5.858695652173913,1.826086956521739,2.9347695990424896,-9.25673249551167,-0.5457809694793536,4073.260073260073,1879.8534798534797,1.0,6.358565940447473,157.26816539542352,-2.748091603053435,0.8396946564885496,0.12213740458015267,-0.9295352323838081,0.05697151424287856,-0.45577211394302847,1065.2014652014652,97.04981774689767,31.2297925863415,
1770984081482.9265,4.695652173913043,-5.9021739130434785,1.8043478260869565,2.79114302812687,-9.304608019150209,-0.5840813883901855,4073.260073260073,1886.4468864468863,1.0,6.353460708861407,157.39453595821612,-3.465648854961832,2.687022900763359,0.564885496183206,-0.9250374812593702,0.07196401799100449,-0.4587706146926537,1130.4029304029302,97.04981774689767,31.2297925863415,
1770984081502.4575,4.684782608695652,-5.83695652173913,1.8043478260869565,2.6810293237582283,-9.275882704967085,-0.5266307600239377,4071.7948717948716,1886.4468864468863,1.0,6.353460708861407,157.39453595821612,-2.763358778625954,2.4580152671755724,0.6870229007633587,-0.9220389805097451,0.0704647676161919,-0.46476761619190404,1197.069597069597,97.04412355847747,31.2297925863415,
1770984081521.9888,4.760869565217392,-5.8478260869565215,1.8152173913043477,2.793536804308797,-9.244763614602034,-0.5481747456612807,4049.8168498168498,1849.8168498168498,1.0,6.348355477275339,157.52110977080818,-3.1755725190839694,1.0534351145038168,0.030534351145038167,-0.9310344827586207,0.0704647676161919,-0.46476761619190404,1262.2710622710622,97.04094440639508,31.2096925788559,
1770984081541.5198,4.815217391304348,-5.923913043478261,1.7826086956521738,2.8557749850388987,-9.304608019150209,-0.5505685218432076,4073.260073260073,1871.0622710622708,1.0,6.348355477275339,157.52110977080818,-4.076335877862595,1.114503816793893,0.2748091603053435,-0.9175412293853074,0.07196401799100449,-0.4737631184407796,1309.1575091575091,97.04379140666536,31.2096925788559,
1770984081561.051,4.771739130434782,-5.967391304347826,1.8152173913043477,2.83901855176541,-9.37642130460802,-0.5721125074805505,4073.260073260073,1876.923076923077,1.0,6.348355477275339,157.52110977080818,-4.580152671755725,2.229007633587786,0.15267175572519084,-0.9145427286356821,0.06146926536731634,-0.45727136431784104,1331.8681318681317,97.04094440639508,31.2096925788559,
1770984081580.582,4.728260869565217,-5.945652173913043,1.8369565217391304,2.771992818671454,-9.345302214242968,-0.5577498503889886,4073.260073260073,1879.120879120879,1.0,6.343250245689271,157.64788732394365,-4.870229007633587,3.068702290076336,0.24427480916030533,-0.9265367316341829,0.06596701649175413,-0.45277361319340326,1334.7985347985348,97.04379140666536,31.2096925788559,
1770984081600.113,4.739130434782608,-5.913043478260869,1.8478260869565217,2.79114302812687,-9.304608019150209,-0.5338120885697187,4046.8864468864467,1846.153846153846,1.0,6.338145014103204,157.77486910994762,-4.9465648854961835,3.4198473282442747,-0.3053435114503817,-0.9145427286356821,0.06296851574212893,-0.4542728635682159,1325.2747252747251,97.04094440639508,31.2096925788559,
1770984081619.6443,4.706521739130435,-5.869565217391304,1.826086956521739,2.771992818671454,-9.283064033512867,-0.5050867743865949,4071.7948717948716,1875.4578754578754,1.0,6.338145014103204,157.77486910994762,-5.786259541984733,3.5725190839694654,-0.7175572519083969,-0.9235382308845577,0.07946026986506746,-0.4662668665667166,1295.2380952380952,97.04379140666536,31.2096925788559,
1770984081639.1753,4.717391304347826,-5.83695652173913,1.8478260869565217,2.750448833034111,-9.26391382405745,-0.5362058647516457,4073.260073260073,1878.3882783882782,1.0,6.338145014103204,157.77486910994762,-5.862595419847328,3.465648854961832,-0.6870229007633587,-0.9175412293853074,0.07346326836581708,-0.46176911544227883,1257.142857142857,97.04663840973237,31.2096925788559,
1770984081658.7063,4.717391304347826,-5.83695652173913,1.858695652173913,2.748055056852184,-9.228007181328545,-0.4907241172950329,4074.7252747252746,1884.9816849816848,1.0,6.333039782517136,157.90205562273275,-5.938931297709924,2.9770992366412212,-1.0229007633587786,-0.9190404797601199,0.07346326836581708,-0.46026986506746626,1221.9780219780218,97.04663840973237,31.2096925788559,
1770984081678.2375,4.717391304347826,-5.804347826086956,1.8695652173913042,2.762417713943746,-9.235188509874327,-0.5098743267504489,4049.8168498168498,1849.084249084249,1.0,6.333039782517136,157.90205562273275,-6.427480916030534,2.916030534351145,-0.8854961832061068,-0.9220389805097451,0.06296851574212893,-0.46176911544227883,1194.1391941391942,97.04094440639508,31.2096925788559,
1770984081697.7686,4.717391304347826,-5.858695652173913,1.8804347826086956,2.760023937761819,-9.237582286056254,-0.4883303411131059,4074.7252747252746,1877.6556776556774,1.0,6.327934550931068,158.02944735780554,-6.549618320610687,3.618320610687023,-0.5954198473282443,-0.9190404797601199,0.08845577211394302,-0.4737631184407796,1173.6263736263736,97.04094440639508,31.2096925788559,
1770984081717.2998,4.739130434782608,-5.869565217391304,1.934782608695652,2.7767803710353083,-9.271095152603232,-0.4260921603830042,4074.7252747252746,1884.249084249084,1.0,6.327934550931068,158.02944735780554,-6.946564885496183,4.33587786259542,-0.5343511450381679,-0.9160419790104948,0.0704647676161919,-0.4587706146926537,1156.7765567765566,97.04094440639508,31.2096925788559,
1770984081736.8308,4.739130434782608,-5.891304347826087,1.8043478260869565,2.781567923399162,-9.28785158587672,-0.45960502692998206,4073.260073260073,1880.5860805860805,1.0,6.327934550931068,158.02944735780554,-7.038167938931298,4.595419847328244,-0.5801526717557252,-0.9145427286356821,0.07796101949025487,-0.46326836581709147,1154.5787545787546,97.04094440639508,31.2096925788559,
1770984081756.3618,4.771739130434782,-6.076086956521739,1.7934782608695652,2.8318372232196287,-9.419509275882705,-0.5649311789347696,4046.8864468864467,1846.8864468864467,1.0,6.322829319345,158.1570448122729,-7.3893129770992365,3.236641221374046,-0.732824427480916,-0.9145427286356821,0.07646176911544228,-0.4482758620689655,1158.974358974359,97.04094440639508,31.2096925788559,
1770984081775.893,4.8478260869565215,-6.33695652173913,1.7934782608695652,2.846199880311191,-9.74985038898863,-0.5457809694793536,4073.260073260073,1871.0622710622708,1.0,6.322829319345,158.1570448122729,-8.396946564885496,3.236641221374046,-0.0916030534351145,-0.9235382308845577,0.07346326836581708,-0.46026986506746626,1161.1721611721612,97.04663840973237,31.2096925788559,
1770984081795.424,4.869565217391305,-6.206521739130435,1.8152173913043477,2.9012567324955114,-9.80490724117295,-0.5266307600239377,4073.260073260073,1876.923076923077,1.0,6.31772408775893,158.2848484848485,-7.190839694656488,3.129770992366412,-0.3511450381679389,-0.9175412293853074,0.08095952023988005,-0.4662668665667166,1170.6959706959706,97.04094440639508,31.2096925788559,
1770984081814.955,4.804347826086956,-5.782608695652174,1.8478260869565217,2.8797127468581687,-9.314183123877918,-0.5385996409335727,4073.260073260073,1878.3882783882782,1.0,6.31772408775893,158.2848484848485,-4.015267175572519,4.183206106870228,-1.2061068702290076,-0.9265367316341829,0.06746626686656672,-0.45727136431784104,1185.3479853479853,97.04379140666536,31.2096925788559,
1770984081834.4863,4.760869565217392,-5.554347826086956,1.858695652173913,2.848593656493118,-8.96229802513465,-0.5098743267504489,4051.282051282051,1852.7472527472526,1.0,6.31772408775893,158.2848484848485,-4.5038167938931295,6.3206106870229,-1.984732824427481,-0.9220389805097451,0.06296851574212893,-0.46026986506746626,1199.2673992673992,97.04094440639508,31.2096925788559,
1770984081854.017,4.706521739130435,-5.684782608695652,1.8478260869565217,2.7695990424895274,-9.010173548773189,-0.49790544584081387,4046.8864468864467,1838.8278388278386,1.0,6.312618856172863,158.41285887585929,-7.908396946564885,7.511450381679389,-2.427480916030534,-0.9205397301349325,0.06146926536731634,-0.4587706146926537,1219.047619047619,97.04094440639508,31.2096925788559,
1770984081873.5486,4.641304347826087,-5.793478260869565,1.858695652173913,2.7001795332136447,-9.139437462597247,-0.471573907839617,4073.260073260073,1868.131868131868,1.0,6.312618856172863,158.41285887585929,-8.946564885496183,8.061068702290076,-2.8702290076335877,-0.9265367316341829,0.06596701649175413,-0.46176911544227883,1263.7362637362637,97.04663840973237,31.2096925788559,
1770984081893.0796,4.565217391304348,-5.771739130434782,1.8369565217391304,2.6116098144823456,-9.13704368641532,-0.5050867743865949,4071.7948717948716,1881.3186813186812,1.0,6.312618856172863,158.41285887585929,-7.938931297709924,8.870229007633588,-3.8167938931297707,-0.9205397301349325,0.07196401799100449,-0.4677661169415292,1365.5677655677655,97.04379140666536,31.2096925788559,
1770984081912.6108,4.554347826086956,-5.83695652173913,1.8369565217391304,2.590065828845003,-9.218432076600838,-0.5050867743865949,4073.260073260073,1880.5860805860805,1.0,6.312618856172863,158.41285887585929,-8.045801526717558,9.282442748091603,-3.83206106870229,-0.9280359820089955,0.07796101949025487,-0.4542728635682159,1536.9963369963368,97.04663840973237,31.2096925788559,
1770984081932.1418,4.510869565217392,-6.010869565217392,1.891304347826087,2.561340514661879,-9.41472172351885,-0.4452423698384201,4074.7252747252746,1885.7142857142856,1.0,6.312618856172863,158.41285887585929,-9.114503816793892,9.81679389312977,-3.16030534351145,-0.9220389805097451,0.06746626686656672,-0.46026986506746626,1764.8351648351647,97.04663840973237,31.2096925788559,
1770984081951.6729,4.467391304347826,-6.08695652173913,1.9239130434782608,2.5134649910233393,-9.508078994614003,-0.4069419509275883,4073.260073260073,1881.3186813186812,1.0,6.307513624586795,158.54107648725216,-8.48854961832061,10.091603053435113,-2.4580152671755724,-0.9220389805097451,0.06596701649175413,-0.46026986506746626,1978.021978021978,97.03809740892149,31.2096925788559,
1770984081971.204,4.489130434782608,-6.141304347826087,1.934782608695652,2.4847396768402152,-9.553560742070616,-0.43566726511071213,4071.7948717948716,1885.7142857142856,1.0,6.302408393000726,158.66950182260027,-7.923664122137405,9.709923664122137,-2.3206106870229006,-0.9235382308845577,0.05847076461769115,-0.4752623688155922,2109.8901098901097,97.04663840973237,31.2096925788559,
1770984081990.735,4.521739130434782,-6.271739130434782,1.9130434782608696,2.532615200478755,-9.704368641532017,-0.45481747456612803,4048.3516483516482,1854.212454212454,1.0,6.302408393000726,158.66950182260027,-7.877862595419847,8.50381679389313,-2.33587786259542,-0.9160419790104948,0.07946026986506746,-0.4662668665667166,2126.7399267399264,97.04379140666536,31.2096925788559,
1770984082010.2664,4.467391304347826,-6.326086956521739,1.9239130434782608,2.5014961101137043,-9.790544584081388,-0.4236983842010772,4071.7948717948716,1878.3882783882782,1.0,6.302408393000726,158.66950182260027,-7.435114503816793,6.702290076335878,-2.1221374045801524,-0.9280359820089955,0.07196401799100449,-0.4767616191904048,2035.164835164835,97.04663840973237,31.2096925788559,
1770984082029.7974,4.413043478260869,-6.163043478260869,1.891304347826087,2.4416517055655294,-9.632555356074207,-0.4260921603830042,4071.7948717948716,1884.249084249084,1.0,6.297303161414658,158.79813538710988,-4.900763358778626,4.290076335877862,-3.0076335877862594,-0.9280359820089955,0.07346326836581708,-0.46176911544227883,1869.5970695970695,97.04663840973237,31.2096925788559,
1770984082049.3284,4.423913043478261,-5.967391304347826,1.9021739130434783,2.429682824655895,-9.51047277079593,-0.4213046080191502,4070.32967032967,1879.8534798534797,1.0,6.297303161414658,158.79813538710988,-2.900763358778626,1.3129770992366412,-4.381679389312977,-0.9310344827586207,0.06446776611694152,-0.4677661169415292,1645.4212454212452,97.0523324242564,31.2096925788559,
1770984082068.8596,4.467391304347826,-5.880434782608695,1.9130434782608696,2.4416517055655294,-9.304608019150209,-0.4045481747456613,4073.260073260073,1879.120879120879,1.0,6.297303161414658,158.79813538710988,-1.5725190839694656,-0.7786259541984732,-5.145038167938931,-0.9250374812593702,0.07496251874062969,-0.472263868065967,1413.1868131868132,97.04379140666536,31.2096925788559,
1770984082088.3906,4.510869565217392,-5.869565217391304,1.9130434782608696,2.523040095751047,-9.242369838420107,-0.40933572710951527,4073.260073260073,1879.120879120879,1.0,6.292197929828591,158.9269776876268,-2.0,-1.9541984732824427,-5.312977099236641,-0.9340329835082458,0.05997001499250375,-0.472263868065967,1226.3736263736264,97.04094440639508,31.2096925788559,
1770984082107.922,4.5,-5.8478260869565215,1.8478260869565217,2.539796529024536,-9.26391382405745,-0.457211250748055,4071.7948717948716,1884.9816849816848,1.0,6.292197929828591,158.9269776876268,-2.5343511450381677,-2.1068702290076335,-4.793893129770992,-0.9250374812593702,0.05847076461769115,-0.46476761619190404,1099.6336996336995,97.04663840973237,31.2096925788559,
1770984082127.453,4.510869565217392,-5.804347826086956,1.826086956521739,2.52064631956912,-9.2327947336924,-0.5194494314781568,4073.260073260073,1880.5860805860805,1.0,6.292197929828591,158.9269776876268,-2.4122137404580153,-0.8091603053435115,-3.450381679389313,-0.9235382308845577,0.06296851574212893,-0.4677661169415292,1027.8388278388277,97.04379140666536,31.2096925788559,
1770984082146.984,4.532608695652174,-5.793478260869565,1.8043478260869565,2.539796529024536,-9.189706762417714,-0.5816876122082585,4049.8168498168498,1847.6190476190475,1.0,6.287092698242523,159.05602923264314,-2.381679389312977,-0.15267175572519084,-2.2748091603053435,-0.9280359820089955,0.06596701649175413,-0.4677661169415292,999.9999999999999,97.04663840973237,31.2096925788559,
1770984082166.5151,4.532608695652174,-5.858695652173913,1.7608695652173914,2.527827648114901,-9.213644524236983,-0.6128067025733094,4046.8864468864467,1837.3626373626373,1.0,6.287092698242523,159.05602923264314,-2.6259541984732824,-0.07633587786259542,-0.7633587786259541,-0.9235382308845577,0.07496251874062969,-0.4587706146926537,1016.8498168498168,97.04663840973237,31.2096925788559,
1770984082186.046,4.5978260869565215,-5.945652173913043,1.7717391304347825,2.594853381208857,-9.314183123877918,-0.6008378216636744,4073.260073260073,1868.131868131868,1.0,6.281987466656456,159.18529053230395,-2.900763358778626,-1.2213740458015268,0.2900763358778626,-0.9205397301349325,0.0704647676161919,-0.46326836581709147,1068.8644688644688,97.04663840973237,31.2096925788559,
1770984082205.5771,4.717391304347826,-5.989130434782608,1.7282608695652173,2.6858168761220824,-9.381208856971872,-0.6223818073010173,4071.7948717948716,1881.3186813186812,1.0,6.281987466656456,159.18529053230395,-3.1908396946564883,-2.595419847328244,-0.5343511450381679,-0.9235382308845577,0.06296851574212893,-0.4662668665667166,1139.9267399267399,97.04379140666536,31.2096925788559,
1770984082225.1084,4.728260869565217,-5.967391304347826,1.7717391304347825,2.771992818671454,-9.402752842609216,-0.6391382405745063,4073.260073260073,1879.8534798534797,1.0,6.281987466656456,159.18529053230395,-3.1755725190839694,-2.183206106870229,-0.9770992366412213,-0.9280359820089955,0.08395802098950525,-0.47826086956521735,1218.3150183150183,97.03809740892149,31.2096925788559,
1770984082244.6394,4.760869565217392,-5.967391304347826,1.7608695652173914,2.786355475763016,-9.402752842609216,-0.6056253740275284,4073.260073260073,1879.8534798534797,1.0,6.276882235070388,159.314762098414,-3.9847328244274807,-1.8473282442748091,-1.8778625954198473,-0.9280359820089955,0.06446776611694152,-0.46026986506746626,1288.6446886446886,97.04663840973237,31.2096925788559,
1770984082264.171,4.728260869565217,-6.021739130434782,1.7717391304347825,2.774386594853381,-9.421903052064632,-0.6152004787552364,4073.260073260073,1879.8534798534797,1.0,6.276882235070388,159.314762098414,-4.213740458015267,-2.1068702290076335,-2.8244274809160306,-0.9250374812593702,0.08095952023988005,-0.46926536731634183,1348.7179487179487,97.04379140666536,31.2096925788559,
1770984082283.7017,4.717391304347826,-5.967391304347826,1.7826086956521738,2.79114302812687,-9.402752842609216,-0.6008378216636744,4073.260073260073,1879.8534798534797,1.0,6.276882235070388,159.314762098414,-3.7862595419847325,-2.3664122137404577,-3.9389312977099236,-0.9265367316341829,0.07196401799100449,-0.46026986506746626,1391.2087912087911,97.04948541559604,31.2096925788559,
1770984082303.233,4.695652173913043,-5.934782608695652,1.8152173913043477,2.750448833034111,-9.374027528426092,-0.5745062836624776,4049.8168498168498,1846.8864468864467,1.0,6.27177700348432,159.44444444444446,-3.9083969465648853,-2.717557251908397,-4.3206106870229,-0.9220389805097451,0.07496251874062969,-0.472263868065967,1398.5347985347985,97.04094440639508,31.2096925788559,
1770984082322.764,4.684782608695652,-5.913043478260869,1.826086956521739,2.736086175942549,-9.307001795332136,-0.5218432076600837,4074.7252747252746,1876.923076923077,1.0,6.27177700348432,159.44444444444446,-3.9083969465648853,-2.778625954198473,-4.381679389312977,-0.9235382308845577,0.06896551724137931,-0.4542728635682159,1369.230769230769,97.04379140666536,31.2096925788559,
1770984082342.295,4.706521739130435,-5.880434782608695,1.8478260869565217,2.755236385397965,-9.28785158587672,-0.5002992220227409,4074.7252747252746,1884.9816849816848,1.0,6.2666717718982525,159.57433808553972,-3.7557251908396947,-2.732824427480916,-3.9083969465648853,-0.9235382308845577,0.06296851574212893,-0.4707646176911544,1327.4725274725274,97.04094440639508,31.2096925788559,
1770984082361.8262,4.695652173913043,-5.891304347826087,1.858695652173913,2.755236385397965,-9.307001795332136,-0.5170556552962298,4073.260073260073,1880.5860805860805,1.0,6.2666717718982525,159.57433808553972,-4.061068702290076,-2.030534351145038,-3.129770992366412,-0.9220389805097451,0.08695652173913043,-0.46176911544227883,1290.8424908424909,97.04379140666536,31.2096925788559,
1770984082381.3572,4.717391304347826,-5.913043478260869,1.891304347826087,2.748055056852184,-9.32854578096948,-0.4452423698384201,4074.7252747252746,1886.4468864468863,1.0,6.2666717718982525,159.57433808553972,-4.564885496183206,-1.099236641221374,-2.8854961832061066,-0.9235382308845577,0.07646176911544228,-0.46326836581709147,1260.07326007326,97.04663840973237,31.2096925788559,
1770984082400.8882,4.695652173913043,-5.923913043478261,1.9239130434782608,2.7265110712148415,-9.330939557151407,-0.41651705565529623,4073.260073260073,1881.3186813186812,1.0,6.2615665403121845,159.70444353852426,-4.3206106870229,-1.0381679389312977,-2.778625954198473,-0.9280359820089955,0.06746626686656672,-0.46176911544227883,1228.5714285714284,97.04663840973237,31.2096925788559,
1770984082420.4194,4.695652173913043,-5.913043478260869,1.858695652173913,2.7456612806702574,-9.321364452423698,-0.48354278874925194,4073.260073260073,1879.8534798534797,1.0,6.2615665403121845,159.70444353852426,-4.183206106870228,-0.8396946564885496,-2.1068702290076335,-0.9280359820089955,0.07196401799100449,-0.46476761619190404,1203.6630036630036,97.04094440639508,31.2096925788559,
1770984082439.9504,4.695652173913043,-5.945652173913043,1.8804347826086956,2.736086175942549,-9.352483542788748,-0.4883303411131059,4074.7252747252746,1885.7142857142856,1.0,6.2564613087261165,159.83476132190944,-3.9389312977099236,-0.9923664122137404,-2.1374045801526718,-0.9325337331334332,0.0704647676161919,-0.46176911544227883,1183.8827838827838,97.04094440639508,31.2096925788559,
1770984082459.4817,4.717391304347826,-6.010869565217392,1.9130434782608696,2.7456612806702574,-9.405146618791143,-0.4883303411131059,4049.8168498168498,1848.3516483516482,1.0,6.2564613087261165,159.83476132190944,-4.152671755725191,-1.3129770992366412,-2.1526717557251906,-0.9295352323838081,0.05997001499250375,-0.46326836581709147,1164.8351648351647,97.04663840973237,31.2096925788559,
1770984082479.0127,4.706521739130435,-6.021739130434782,1.934782608695652,2.771992818671454,-9.46259724715739,-0.43327348892878514,4074.7252747252746,1871.0622710622708,1.0,6.251356077140049,159.96529195590037,-3.679389312977099,-1.2519083969465647,-2.6564885496183206,-0.9295352323838081,0.06746626686656672,-0.46476761619190404,1156.7765567765566,97.04663840973237,31.2096925788559,
1770984082498.5437,4.684782608695652,-5.945652173913043,1.8695652173913042,2.7265110712148415,-9.397965290245361,-0.43566726511071213,4074.7252747252746,1882.7838827838827,1.0,6.2564613087261165,159.83476132190944,-3.450381679389313,-1.0381679389312977,-2.7938931297709924,-0.9250374812593702,0.06296851574212893,-0.4707646176911544,1158.2417582417581,97.04379140666536,31.2096925788559,
1770984082518.075,4.6521739130434785,-5.967391304347826,1.858695652173913,2.7193297426690606,-9.352483542788748,-0.4955116696588869,4073.260073260073,1880.5860805860805,1.0,6.251356077140049,159.96529195590037,-3.7709923664122136,-1.099236641221374,-2.6259541984732824,-0.9295352323838081,0.05697151424287856,-0.46476761619190404,1178.7545787545787,97.046175836311,31.224767584033543,
1770984082537.606,4.663043478260869,-5.989130434782608,1.8478260869565217,2.7073608617594256,-9.3836026331538,-0.5122681029323758,4074.7252747252746,1886.4468864468863,1.0,6.251356077140049,159.96529195590037,-3.2671755725190836,-1.0229007633587786,-1.7404580152671756,-0.9250374812593702,0.05397301349325337,-0.46026986506746626,1201.4652014652013,97.04332876663474,31.224767584033543,
1770984082557.1372,4.663043478260869,-5.978260869565217,1.8695652173913042,2.7001795332136447,-9.400359066427288,-0.5218432076600837,4073.260073260073,1881.3186813186812,1.0,6.251356077140049,159.96529195590037,-2.259541984732824,-1.2213740458015268,-1.984732824427481,-0.9250374812593702,0.06446776611694152,-0.46326836581709147,1261.5384615384614,97.05186998405401,31.224767584033543,
1770984082576.6682,4.684782608695652,-5.891304347826087,1.8804347826086956,2.6977857570317174,-9.338120885697187,-0.49790544584081387,4045.421245421245,1846.153846153846,1.0,6.251356077140049,159.96529195590037,-3.16030534351145,-1.7251908396946565,-1.450381679389313,-0.9265367316341829,0.06296851574212893,-0.4707646176911544,1383.150183150183,97.04332876663474,31.224767584033543,
1770984082596.1992,4.717391304347826,-5.880434782608695,1.858695652173913,2.7289048473967683,-9.273488928785158,-0.5002992220227409,4073.260073260073,1870.3296703296703,1.0,6.251356077140049,159.96529195590037,-3.7251908396946565,-1.4198473282442747,-1.297709923664122,-0.9250374812593702,0.08545727136431784,-0.4737631184407796,1538.4615384615383,97.04902290878408,31.224767584033543,
1770984082615.7305,4.728260869565217,-5.934782608695652,1.8478260869565217,2.736086175942549,-9.307001795332136,-0.5194494314781568,4049.8168498168498,1844.6886446886447,1.0,6.2462508455539805,160.09603596240296,-3.7557251908396947,-1.3129770992366412,-1.129770992366412,-0.9220389805097451,0.05397301349325337,-0.4707646176911544,1712.087912087912,97.04332876663474,31.224767584033543,
1770984082635.2617,4.760869565217392,-5.945652173913043,1.858695652173913,2.817474566128067,-9.330939557151407,-0.5266307600239377,4074.7252747252746,1876.1904761904761,1.0,6.2462508455539805,160.09603596240296,-4.091603053435114,0.366412213740458,-0.6106870229007634,-0.9235382308845577,0.06296851574212893,-0.4662668665667166,1863.7362637362637,97.04902290878408,31.224767584033543,
1770984082654.7925,4.75,-5.891304347826087,1.8043478260869565,2.817474566128067,-9.304608019150209,-0.6104129263913823,4073.260073260073,1878.3882783882782,1.0,6.241145613967913,160.2269938650307,-4.366412213740458,3.0076335877862594,-0.3053435114503817,-0.9235382308845577,0.07796101949025487,-0.46476761619190404,1953.8461538461538,97.04902290878408,31.224767584033543,
1770984082674.3235,4.608695652173913,-5.9021739130434785,1.8043478260869565,2.7001795332136447,-9.295032914422501,-0.5577498503889886,4070.32967032967,1878.3882783882782,1.0,6.241145613967913,160.2269938650307,-4.396946564885496,2.4122137404580153,0.12213740458015267,-0.9220389805097451,0.07496251874062969,-0.472263868065967,1969.9633699633698,97.046175836311,31.224767584033543,
1770984082693.8547,4.6521739130434785,-5.934782608695652,1.8043478260869565,2.6714542190305206,-9.350089766606821,-0.5673249551166966,4073.260073260073,1879.120879120879,1.0,6.241145613967913,160.2269938650307,-4.854961832061068,0.6564885496183206,-0.04580152671755725,-0.9250374812593702,0.0704647676161919,-0.45727136431784104,1904.0293040293038,97.05471706212073,31.224767584033543,
1770984082713.386,4.728260869565217,-5.923913043478261,1.858695652173913,2.781567923399162,-9.338120885697187,-0.5266307600239377,4071.7948717948716,1884.9816849816848,1.0,6.236040382381846,160.35816618911176,-4.916030534351145,-0.366412213740458,-0.38167938931297707,-0.9220389805097451,0.08395802098950525,-0.46026986506746626,1769.9633699633698,97.04902290878408,31.224767584033543,
1770984082732.917,4.793478260869565,-5.9021739130434785,1.8369565217391304,2.834230999401556,-9.307001795332136,-0.5505685218432076,4071.7948717948716,1886.4468864468863,1.0,6.236040382381846,160.35816618911176,-5.007633587786259,0.42748091603053434,-0.5343511450381679,-0.9265367316341829,0.07496251874062969,-0.46476761619190404,1601.4652014652013,97.046175836311,31.224767584033543,
1770984082752.448,4.782608695652174,-5.9021739130434785,1.7934782608695652,2.8557749850388987,-9.295032914422501,-0.5912627169359664,4071.7948717948716,1887.179487179487,1.0,6.236040382381846,160.35816618911176,-5.603053435114504,1.7404580152671756,-0.3969465648854962,-0.9190404797601199,0.06296851574212893,-0.4662668665667166,1435.164835164835,97.04902290878408,31.224767584033543,
1770984082771.9792,4.75,-5.9021739130434785,1.8043478260869565,2.803111909036505,-9.316576900059845,-0.5433871932974267,4048.3516483516482,1854.9450549450548,1.0,6.230935150795777,160.48955346169603,-5.404580152671755,2.183206106870229,-0.12213740458015267,-0.9220389805097451,0.05547226386806597,-0.4662668665667166,1290.8424908424909,97.04332876663474,31.224767584033543,
1770984082791.5105,4.75,-5.923913043478261,1.8152173913043477,2.7887492519449433,-9.32854578096948,-0.5314183123877917,4073.260073260073,1872.5274725274724,1.0,6.230935150795777,160.48955346169603,-5.114503816793893,2.259541984732824,-0.33587786259541985,-0.9235382308845577,0.06896551724137931,-0.46926536731634183,1169.9633699633698,97.04332876663474,31.224767584033543,
1770984082811.0415,4.739130434782608,-5.880434782608695,1.826086956521739,2.783961699581089,-9.28785158587672,-0.5362058647516457,4073.260073260073,1877.6556776556774,1.0,6.225829919209709,160.62115621156212,-5.709923664122138,2.33587786259542,-0.10687022900763359,-0.9130434782608695,0.06146926536731634,-0.45577211394302847,1095.2380952380952,97.04332876663474,31.224767584033543,
1770984082830.5725,4.782608695652174,-5.880434782608695,1.8152173913043477,2.829443447037702,-9.28785158587672,-0.5362058647516457,4070.32967032967,1877.6556776556774,1.0,6.225829919209709,160.62115621156212,-6.183206106870228,2.7022900763358777,-0.41221374045801523,-0.9340329835082458,0.07646176911544228,-0.46026986506746626,1064.4688644688645,97.04902290878408,31.224767584033543,
1770984082850.1035,4.793478260869565,-5.913043478260869,1.826086956521739,2.8318372232196287,-9.309395571514063,-0.5170556552962298,4073.260073260073,1879.120879120879,1.0,6.225829919209709,160.62115621156212,-6.671755725190839,3.8167938931297707,0.04580152671755725,-0.9190404797601199,0.07796101949025487,-0.46026986506746626,1076.923076923077,97.046175836311,31.224767584033543,
1770984082869.6348,4.782608695652174,-5.913043478260869,1.826086956521739,2.819868342309994,-9.330939557151407,-0.5385996409335727,4073.260073260073,1879.8534798534797,1.0,6.220724687623642,160.75297496922445,-6.717557251908397,4.122137404580153,-0.183206106870229,-0.9280359820089955,0.07196401799100449,-0.4707646176911544,1127.4725274725274,97.046175836311,31.224767584033543,
1770984082889.1658,4.771739130434782,-5.956521739130435,1.826086956521739,2.817474566128067,-9.354877318970676,-0.5122681029323758,4073.260073260073,1879.8534798534797,1.0,6.220724687623642,160.75297496922445,-6.900763358778626,4.305343511450381,-0.5343511450381679,-0.9250374812593702,0.06296851574212893,-0.46026986506746626,1201.4652014652013,97.04332876663474,31.224767584033543,
1770984082908.697,4.771739130434782,-6.010869565217392,1.858695652173913,2.827049670855775,-9.41472172351885,-0.5409934171154996,4073.260073260073,1879.8534798534797,1.0,6.220724687623642,160.75297496922445,-6.534351145038167,4.183206106870228,-0.5801526717557252,-0.9370314842578711,0.06896551724137931,-0.4512743628185907,1287.179487179487,97.04332876663474,31.224767584033543,
1770984082928.228,4.739130434782608,-6.010869565217392,1.858695652173913,2.817474566128067,-9.42429682824656,-0.5122681029323758,4049.8168498168498,1847.6190476190475,1.0,6.215619456037573,160.88501026694047,-6.3969465648854955,4.412213740458015,-0.7022900763358778,-0.9265367316341829,0.06296851574212893,-0.4677661169415292,1349.4505494505493,97.04902290878408,31.224767584033543,
1770984082947.759,4.760869565217392,-5.956521739130435,1.8804347826086956,2.800718132854578,-9.402752842609216,-0.5050867743865949,4073.260073260073,1871.0622710622708,1.0,6.215619456037573,160.88501026694047,-5.908396946564885,3.969465648854962,-0.8244274809160305,-0.9295352323838081,0.06746626686656672,-0.4752623688155922,1390.4761904761904,97.03763463567273,31.224767584033543,
1770984082967.2903,4.75,-5.923913043478261,1.8695652173913042,2.7887492519449433,-9.333333333333334,-0.5026929982046678,4073.260073260073,1876.923076923077,1.0,6.215619456037573,160.88501026694047,-5.9541984732824424,4.152671755725191,-1.1450381679389312,-0.9250374812593702,0.06896551724137931,-0.46326836581709147,1404.3956043956043,97.046175836311,31.224767584033543,
1770984082986.8213,4.695652173913043,-5.9021739130434785,1.858695652173913,2.771992818671454,-9.321364452423698,-0.49790544584081387,4071.7948717948716,1884.249084249084,1.0,6.215619456037573,160.88501026694047,-6.045801526717557,4.5038167938931295,-1.0534351145038168,-0.9325337331334332,0.06746626686656672,-0.46176911544227883,1380.2197802197802,97.04902290878408,31.224767584033543,
1770984083006.3523,4.695652173913043,-5.934782608695652,1.858695652173913,2.7456612806702574,-9.33572710951526,-0.4883303411131059,4074.7252747252746,1887.179487179487,1.0,6.210514224451506,161.01726263871765,-6.290076335877862,4.290076335877862,-1.5572519083969465,-0.9235382308845577,0.06446776611694152,-0.4662668665667166,1340.6593406593406,97.04902290878408,31.224767584033543,
1770984083025.8835,4.6521739130434785,-5.891304347826087,1.8695652173913042,2.7073608617594256,-9.31897067624177,-0.48114901256732495,4065.9340659340655,1879.120879120879,1.0,6.210514224451506,161.01726263871765,-5.66412213740458,4.7328244274809155,-1.083969465648855,-0.9280359820089955,0.06296851574212893,-0.46326836581709147,1302.5641025641025,97.04332876663474,31.224767584033543,
1770984083045.4146,4.641304347826087,-5.869565217391304,1.8695652173913042,2.7265110712148415,-9.268701376421305,-0.5122681029323758,4073.260073260073,1879.120879120879,1.0,6.205408992865438,161.14973262032086,-6.2748091603053435,4.931297709923664,-0.9312977099236641,-0.9265367316341829,0.06446776611694152,-0.46026986506746626,1268.131868131868,97.04332876663474,31.224767584033543,
1770984083064.9458,4.641304347826087,-5.913043478260869,1.8804347826086956,2.6834230999401556,-9.302214242968283,-0.5026929982046678,4073.260073260073,1879.8534798534797,1.0,6.205408992865438,161.14973262032086,-6.305343511450381,6.015267175572519,-0.16793893129770993,-0.9130434782608695,0.06146926536731634,-0.45577211394302847,1247.6190476190475,97.04332876663474,31.224767584033543,
1770984083084.4768,4.641304347826087,-5.956521739130435,1.8804347826086956,2.6906044284859365,-9.354877318970676,-0.4931178934769599,4051.282051282051,1853.4798534798533,1.0,6.205408992865438,161.14973262032086,-6.595419847328244,6.6106870229007635,-0.21374045801526717,-0.9265367316341829,0.06446776611694152,-0.46926536731634183,1237.3626373626373,97.04902290878408,31.224767584033543,
