Shimmer_A679_TimestampSync_Unix_CAL,Shimmer_A679_Accel_LN_X_CAL,Shimmer_A679_Accel_LN_Y_CAL,Shimmer_A679_Accel_LN_Z_CAL,Shimmer_A679_Accel_WR_X_CAL,Shimmer_A679_Accel_WR_Y_CAL,Shimmer_A679_Accel_WR_Z_CAL,Shimmer_A679_Battery_CAL,Shimmer_A679_Ext_Exp_A15_CAL,Shimmer_A679_GSR_Range_CAL,Shimmer_A679_GSR_Skin_Conductance_CAL,Shimmer_A679_GSR_Skin_Resistance_CAL,Shimmer_A679_Gyro_X_CAL,Shimmer_A679_Gyro_Y_CAL,Shimmer_A679_Gyro_Z_CAL,Shimmer_A679_Mag_X_CAL,Shimmer_A679_Mag_Y_CAL,Shimmer_A679_Mag_Z_CAL,Shimmer_A679_PPG_A13_CAL,Shimmer_A679_Pressure_BMP280_CAL,Shimmer_A679_Temperature_BMP280_CAL,Unnamed: 21
1770984780500.9543,5.728260869565217,-5.293478260869565,0.41304347826086957,3.932974266906044,-8.706163973668462,-2.0897666068222622,4038.0952380952376,1819.047619047619,1.0,4.668734285459024,214.19081465281573,-10.67175572519084,-1.9694656488549618,-1.7404580152671756,-0.9760119940029984,-0.029985007496251874,-0.5667166416791604,1331.135531135531,97.03418739225243,31.49109310740605,
1770984780520.5771,5.58695652173913,-5.25,0.3913043478260869,3.8252543387193296,-8.63674446439258,-2.1137043686415318,4032.234432234432,1798.5347985347985,1.0,4.668734285459024,214.19081465281573,-10.412213740458014,-2.015267175572519,-0.21374045801526717,-0.9865067466266866,-0.013493253373313342,-0.5727136431784108,1246.8864468864467,97.03703563778618,31.49109310740605,
1770984780540.1082,5.663043478260869,-5.260869565217392,0.4782608695652174,3.822860562537403,-8.61998803111909,-2.1256732495511668,4060.07326007326,1846.153846153846,1.0,4.668734285459024,214.19081465281573,-8.778625954198473,-3.8167938931297707,2.5801526717557253,-0.985007496251874,-0.01649175412293853,-0.5622188905547226,1191.2087912087911,97.03133914951788,31.49109310740605,
1770984780559.6394,5.5978260869565215,-5.271739130434782,0.44565217391304346,3.7582286056253738,-8.622381807301018,-2.0299222022740873,4038.0952380952376,1820.5128205128203,1.0,4.668734285459024,214.19081465281573,-9.893129770992367,-3.969465648854962,-0.04580152671755725,-0.9820089955022488,-0.0029985007496251873,-0.5697151424287856,1165.5677655677655,97.03703563778618,31.49109310740605,
1770984780618.141,5.793478260869565,-5.413043478260869,0.40217391304347827,3.8850987432675046,-8.749251944943147,-2.0706163973668463,4058.6080586080584,1857.142857142857,1.0,4.663629053872956,214.42528735632183,-5.801526717557252,-5.32824427480916,-2.091603053435114,-0.9835082458770614,-0.026986506746626684,-0.5637181409295352,1255.6776556776556,97.03703563778618,31.49109310740605,
1770984780637.7637,5.641304347826087,-5.369565217391304,0.40217391304347827,3.8396169958108914,-8.725314183123878,-2.1017354877318972,4035.164835164835,1822.7106227106226,1.0,4.663629053872956,214.42528735632183,-2.427480916030534,-5.3893129770992365,-2.8702290076335877,-0.9745127436281859,-0.026986506746626684,-0.5592203898050975,1327.4725274725274,97.03418739225243,31.49109310740605,
1770984780657.295,5.684782608695652,-5.369565217391304,0.40217391304347827,3.7965290245362056,-8.730101735487732,-2.094554159186116,4061.5384615384614,1847.6190476190475,1.0,4.668734285459024,214.19081465281573,-0.6259541984732824,-6.687022900763359,-3.5725190839694654,-0.9745127436281859,-0.01649175412293853,-0.568215892053973,1392.6739926739926,97.03988388611906,31.49109310740605,
1770984780676.826,5.706521739130435,-5.358695652173913,0.3913043478260869,3.834829443447038,-8.725314183123878,-2.120885697187313,4035.164835164835,1819.7802197802196,1.0,4.663629053872956,214.42528735632183,-0.1984732824427481,-9.083969465648854,-4.045801526717557,-0.9745127436281859,-0.0029985007496251873,-0.5637181409295352,1425.6410256410256,97.03418739225243,31.49109310740605,
1770984780735.3276,5.717391304347826,-5.326086956521739,0.22826086956521738,3.8515858767205264,-8.68461998803112,-2.2812687013764212,4035.164835164835,1815.3846153846152,1.0,4.663629053872956,214.42528735632183,-1.648854961832061,-7.98473282442748,-3.480916030534351,-0.9685157421289355,-0.0239880059970015,-0.5592203898050975,1373.6263736263736,97.03418739225243,31.49109310740605,
1770984780754.9502,5.695652173913043,-5.358695652173913,0.25,3.8132854578096946,-8.698982645122681,-2.295631358467983,4060.07326007326,1850.5494505494505,1.0,4.663629053872956,214.42528735632183,-2.4580152671755724,-5.343511450381679,-3.297709923664122,-0.9835082458770614,-0.029985007496251874,-0.5427286356821589,1345.054945054945,97.03988388611906,31.49109310740605,
1770984780774.4814,5.663043478260869,-5.326086956521739,0.2717391304347826,3.784560143626571,-8.677438659485338,-2.2669060442848594,4060.07326007326,1860.07326007326,1.0,4.663629053872956,214.42528735632183,-2.33587786259542,-3.145038167938931,-3.2213740458015265,-0.992503748125937,-0.029985007496251874,-0.5592203898050975,1324.5421245421244,97.04067844249968,31.496118125139038,
1770984780832.9832,5.6521739130434785,-5.33695652173913,0.358695652173913,3.791741472172352,-8.706163973668462,-2.1950927588270495,4035.164835164835,1816.117216117216,1.0,4.663629053872956,214.42528735632183,-5.0534351145038165,-2.198473282442748,-2.198473282442748,-0.9835082458770614,-0.005997001499250375,-0.56071964017991,1293.7728937728937,97.03498190235878,31.496118125139038,
1770984780852.6057,5.663043478260869,-5.326086956521739,0.3695652173913043,3.798922800718133,-8.708557749850389,-2.1615798922800717,4061.5384615384614,1845.4212454212452,1.0,4.658523822286889,214.6602739726027,-4.9465648854961835,-1.83206106870229,-2.33587786259542,-0.9775112443778111,-0.01649175412293853,-0.5592203898050975,1284.9816849816848,97.03498190235878,31.496118125139038,
1770984781067.3564,5.782608695652174,-5.358695652173913,0.32608695652173914,3.92818671454219,-8.761220825852783,-2.1735487731897067,4061.5384615384614,1845.4212454212452,1.0,4.653418590700821,214.8957761930883,-5.32824427480916,5.145038167938931,0.061068702290076333,-0.9880059970014993,-0.025487256371814093,-0.5592203898050975,1652.7472527472526,97.03498190235878,31.496118125139038,
1770984781086.979,5.760869565217392,-5.33695652173913,0.33695652173913043,3.8874925194494314,-8.701376421304607,-2.1759425493716336,4057.142857142857,1851.2820512820513,1.0,4.653418590700821,214.8957761930883,-4.229007633587786,5.343511450381679,-0.04580152671755725,-0.9820089955022488,-0.013493253373313342,-0.56071964017991,1492.3076923076922,97.03498190235878,31.496118125139038,
1770984781106.5105,5.706521739130435,-5.25,0.32608695652173914,3.8084979054458405,-8.598444045481747,-2.1639736684619986,4033.6996336996335,1819.7802197802196,1.0,4.653418590700821,214.8957761930883,-4.977099236641221,4.244274809160305,-0.6259541984732824,-0.9805097451274363,-0.004497751124437781,-0.553223388305847,1348.7179487179487,97.03783017102964,31.496118125139038,
1770984781165.012,5.771739130434782,-5.391304347826087,0.3804347826086956,3.916217833632555,-8.744464392579294,-2.106523040095751,4061.5384615384614,1855.6776556776556,1.0,4.653418590700821,214.8957761930883,-2.0,3.9541984732824424,-0.564885496183206,-0.9865067466266866,-0.020989505247376312,-0.56071964017991,1123.076923076923,97.04352671676895,31.496118125139038,
1770984781184.6345,5.771739130434782,-5.369565217391304,0.3913043478260869,3.9138240574506282,-8.734889287851585,-2.12327947336924,4038.0952380952376,1823.4432234432234,1.0,4.653418590700821,214.8957761930883,-0.9007633587786259,3.2671755725190836,-0.5801526717557252,-0.9835082458770614,-0.029985007496251874,-0.5592203898050975,1141.3919413919414,97.03498190235878,31.496118125139038,
1770984781282.1985,5.793478260869565,-5.326086956521739,0.3804347826086956,3.92818671454219,-8.706163973668462,-2.128067025733094,4041.0256410256407,1825.6410256410254,1.0,4.648313359114754,215.13179571663917,0.47328244274809156,2.0610687022900764,-2.0,-0.9775112443778111,-0.0239880059970015,-0.5697151424287856,1408.7912087912086,97.03498190235878,31.496118125139038,
1770984783469.682,5.467391304347826,-5.434782608695652,0.09782608695652173,3.5882704967085575,-8.847396768402154,-2.4727707959305802,4060.07326007326,1852.7472527472526,1.0,4.7146813697336345,212.10341093665403,-10.854961832061068,-12.045801526717558,-1.7862595419847327,-0.9580209895052474,-0.025487256371814093,-0.4962518740629685,1266.6666666666665,97.03703563778618,31.49109310740605,
1770984783528.2751,5.434782608695652,-5.326086956521739,0.0,3.5427887492519448,-8.710951526032316,-2.4991023339317775,4038.0952380952376,1825.6410256410254,1.0,4.7197866013197025,211.87398593834504,-10.51908396946565,-5.236641221374046,0.8244274809160305,-0.9625187406296851,-0.0029985007496251873,-0.4962518740629685,1216.8498168498168,97.03703563778618,31.49109310740605,
1770984783586.8684,5.673913043478261,-5.478260869565217,-0.6630434782608695,3.7773788150807897,-8.761220825852783,-3.1765409934171154,4060.07326007326,1858.6080586080584,1.0,4.7197866013197025,211.87398593834504,-17.31297709923664,-0.549618320610687,2.351145038167939,-0.9565217391304347,-0.01649175412293853,-0.4962518740629685,1258.6080586080586,97.03418739225243,31.49109310740605,
1770984783625.931,5.608695652173913,-6.228260869565217,-1.5434782608695652,3.688809096349491,-9.680430879712747,-4.067025733093955,4060.07326007326,1852.7472527472526,1.0,4.7248918329057705,211.645056726094,-21.114503816793892,-3.145038167938931,9.98473282442748,-0.9640179910044977,-0.013493253373313342,-0.48575712143928035,1306.9597069597069,97.03133914951788,31.49109310740605,
1770984783645.5532,5.630434782608695,-5.956521739130435,-2.0978260869565215,3.7701974865350087,-9.577498503889887,-4.8019150209455415,4058.6080586080584,1854.9450549450548,1.0,4.7248918329057705,211.645056726094,-8.320610687022901,8.80916030534351,3.8931297709923665,-0.9565217391304347,-0.005997001499250375,-0.4932533733133433,1360.4395604395604,97.03133914951788,31.49109310740605,
1770984783665.0845,6.195652173913043,-5.032608695652174,-1.9782608695652173,4.282465589467384,-8.54817474566128,-4.847396768402154,4054.212454212454,1853.4798534798533,1.0,4.7248918329057705,211.645056726094,-11.038167938931297,18.412213740458014,1.4961832061068703,-0.9565217391304347,-0.005997001499250375,-0.5007496251874063,1432.9670329670328,97.03988388611906,31.49109310740605,
1770984783840.7727,4.891304347826087,-5.891304347826087,0.7391304347826086,2.6762417713943747,-9.601436265709156,-1.3500897666068223,4036.6300366300366,1826.3736263736262,1.0,4.7248918329057705,211.645056726094,-29.49618320610687,73.69465648854961,-7.236641221374046,-0.9775112443778111,-0.04947526236881559,-0.5187406296851574,1260.07326007326,97.032928125992,31.501143143163063,
1770984783860.3955,4.58695652173913,-4.815217391304348,0.6521739130434783,2.7001795332136447,-8.653500897666069,-1.7905445840813883,4030.7692307692305,1810.989010989011,1.0,4.7248918329057705,211.645056726094,-17.221374045801525,68.2442748091603,-4.33587786259542,-0.9685157421289355,-0.038980509745127435,-0.5142428785607196,1290.8424908424909,97.03862470680883,31.501143143163063,
1770984783879.9265,4.25,-4.945652173913043,0.7282608695652174,2.4703770197486534,-7.956912028725314,-1.8575703171753442,4057.142857142857,1843.2234432234432,1.0,4.7248918329057705,211.645056726094,-20.50381679389313,63.11450381679389,6.580152671755725,-0.9700149925037481,-0.037481259370314844,-0.5187406296851574,1363.3699633699632,97.04432129882262,31.501143143163063,
1770984783899.4575,3.510869565217391,-5.728260869565217,0.6086956521739131,1.7690005984440453,-8.792339916217834,-1.7330939557151406,4045.421245421245,1835.164835164835,1.0,4.7248918329057705,211.645056726094,-15.770992366412212,55.908396946564885,18.106870229007633,-0.9760119940029984,-0.043478260869565216,-0.52023988005997,1445.4212454212454,97.032928125992,31.501143143163063,
1770984783918.9888,3.6630434782608696,-5.456521739130435,0.3913043478260869,1.2471573907839617,-9.08916816277678,-1.8910831837223219,4058.6080586080584,1849.8168498168498,1.0,4.7248918329057705,211.645056726094,2.1526717557251906,40.25954198473282,19.114503816793892,-0.9790104947526237,-0.041979010494752625,-0.5247376311844077,1463.003663003663,97.032928125992,31.501143143163063,
1770984783938.5198,4.391304347826087,-4.695652173913043,0.3804347826086956,2.2118491921005385,-8.248952722920407,-2.135248354278875,4057.142857142857,1853.4798534798533,1.0,4.7248918329057705,211.645056726094,6.3969465648854955,27.679389312977097,21.221374045801525,-0.9730134932533733,-0.013493253373313342,-0.5382308845577212,1378.021978021978,97.03007983978246,31.501143143163063,
1770984783958.051,5.195652173913043,-4.532608695652174,0.22826086956521738,2.9012567324955114,-7.736684619988031,-2.159186116098145,4057.142857142857,1854.212454212454,1.0,4.7248918329057705,211.645056726094,-0.7480916030534351,20.793893129770993,28.671755725190838,-0.9730134932533733,-0.022488755622188904,-0.5307346326836582,1254.9450549450548,97.032928125992,31.501143143163063,
1770984783977.582,5.913043478260869,-4.923913043478261,-0.043478260869565216,3.9018551765409932,-8.07899461400359,-2.4967085577498502,4049.8168498168498,1839.5604395604394,1.0,4.7248918329057705,211.645056726094,-6.458015267175572,17.84732824427481,34.916030534351144,-0.985007496251874,-0.038980509745127435,-0.5352323838080959,1190.4761904761904,97.04147300141611,31.501143143163063,
1770984783997.113,6.630434782608695,-5.08695652173913,-1.717391304347826,4.536205864751645,-8.502692998204667,-3.545182525433872,4036.6300366300366,1824.9084249084249,1.0,4.7248918329057705,211.645056726094,-4.442748091603053,21.068702290076335,34.82442748091603,-0.9685157421289355,-0.04047976011994003,-0.5352323838080959,1186.8131868131868,97.032928125992,31.501143143163063,
1770984784016.6443,7.163043478260869,-4.489130434782608,-0.2717391304347826,5.237582286056254,-7.899461400359066,-3.478156792339916,4030.7692307692305,1810.989010989011,1.0,4.7248918329057705,211.645056726094,-0.4580152671755725,29.572519083969464,30.183206106870227,-0.9685157421289355,-0.0239880059970015,-0.5442278860569715,1233.6996336996335,97.032928125992,31.501143143163063,
1770984784036.1753,7.065217391304348,-4.913043478260869,-1.1630434782608696,5.479353680430879,-8.031119090365051,-3.779772591262717,4057.142857142857,1842.4908424908424,1.0,4.7248918329057705,211.645056726094,-11.786259541984732,21.16030534351145,29.98473282442748,-0.9700149925037481,-0.025487256371814093,-0.5442278860569715,1318.6813186813185,97.032928125992,31.501143143163063,
1770984784055.7063,6.923913043478261,-5.423913043478261,-0.33695652173913043,5.314183123877918,-8.756433273488929,-3.092758827049671,4043.9560439560437,1828.5714285714284,1.0,4.7248918329057705,211.645056726094,-11.84732824427481,9.709923664122137,16.80916030534351,-0.9715142428785607,-0.0029985007496251873,-0.5397301349325337,1367.7655677655678,97.03577641500078,31.501143143163063,
1770984784075.2375,6.684782608695652,-5.489130434782608,0.7065217391304348,4.9455415918611605,-8.864153201675643,-2.025134649910233,4060.07326007326,1854.9450549450548,1.0,4.7197866013197025,211.87398593834504,-12.320610687022901,-13.709923664122137,-0.9312977099236641,-0.9700149925037481,-0.017991004497751123,-0.5397301349325337,1373.6263736263736,97.03007983978246,31.501143143163063,
1770984784094.7686,7.630434782608695,-5.913043478260869,0.7608695652173912,5.721125074805506,-9.22561340514662,-1.5846798324356672,4058.6080586080584,1855.6776556776556,1.0,4.7197866013197025,211.87398593834504,-16.381679389312975,-30.732824427480914,-10.854961832061068,-0.9715142428785607,-0.035982008995502246,-0.5367316341829085,1338.4615384615383,97.032928125992,31.501143143163063,
1770984784114.2998,8.271739130434783,-6.315217391304348,0.44565217391304346,6.652304009575104,-9.790544584081388,-1.9557151406343507,4058.6080586080584,1855.6776556776556,1.0,4.7197866013197025,211.87398593834504,-5.145038167938931,-30.47328244274809,-18.717557251908396,-0.9760119940029984,-0.035982008995502246,-0.527736131934033,1272.5274725274724,97.03862470680883,31.501143143163063,
1770984784133.8308,8.597826086956522,-6.489130434782608,0.18478260869565216,7.016157989228007,-9.984440454817474,-2.276481149012567,4058.6080586080584,1855.6776556776556,1.0,4.7197866013197025,211.87398593834504,13.96946564885496,-18.931297709923662,-24.580152671755723,-0.9700149925037481,-0.019490254872563718,-0.545727136431784,1207.3260073260074,97.03577641500078,31.501143143163063,
1770984784153.362,8.782608695652174,-6.33695652173913,0.06521739130434782,7.1980849790544585,-9.934171154997008,-2.36983842010772,4055.6776556776554,1849.084249084249,1.0,4.7197866013197025,211.87398593834504,37.57251908396947,-9.603053435114504,-32.93129770992366,-0.9670164917541229,-0.037481259370314844,-0.5352323838080959,1209.5238095238094,97.03577641500078,31.501143143163063,
1770984784172.893,8.097826086956522,-6.25,0.6630434782608695,6.6163973668462,-9.690005984440454,-1.917414721723519,4060.07326007326,1860.07326007326,1.0,4.7197866013197025,211.87398593834504,54.48854961832061,-0.3053435114503817,-38.82442748091603,-0.9715142428785607,-0.031484257871064465,-0.5352323838080959,1279.120879120879,97.03007983978246,31.501143143163063,
1770984784192.424,6.826086956521739,-7.1521739130434785,1.076086956521739,5.146618791143028,-10.690604428485937,-1.3141831238779174,4058.6080586080584,1857.142857142857,1.0,4.7197866013197025,211.87398593834504,55.96946564885496,-4.702290076335878,-49.725190839694655,-0.9715142428785607,-0.022488755622188904,-0.5397301349325337,1356.7765567765566,97.032928125992,31.501143143163063,
1770984784211.955,6.630434782608695,-7.1521739130434785,1.0217391304347825,4.813883901855176,-10.827049670855775,-1.3883901855176541,4043.9560439560437,1832.9670329670328,1.0,4.7146813697336345,212.10341093665403,75.23664122137404,-29.038167938931295,-56.70229007633588,-0.9790104947526237,-0.005997001499250375,-0.5517241379310345,1353.8461538461538,97.03577641500078,31.501143143163063,
1770984784231.4863,6.282608695652174,-4.206521739130435,1.0217391304347825,4.895272292040694,-9.412327947336923,-1.4338719329742668,4060.07326007326,1855.6776556776556,1.0,4.7146813697336345,212.10341093665403,71.63358778625954,-48.94656488549618,-54.229007633587784,-0.9820089955022488,-0.025487256371814093,-0.553223388305847,1266.6666666666665,97.03862470680883,31.501143143163063,
1770984784251.0176,4.83695652173913,-3.1304347826086953,1.065217391304348,3.8276481149012564,-6.235786953919808,-1.419509275882705,4060.07326007326,1861.5384615384614,1.0,4.7146813697336345,212.10341093665403,31.43511450381679,-56.38167938931298,-56.83969465648855,-0.9880059970014993,-0.02848575712143928,-0.5487256371814093,1112.8205128205127,97.03007983978246,31.501143143163063,
1770984784270.5486,3.543478260869565,-5.141304347826087,0.4891304347826087,1.9581089168162775,-7.391980849790545,-1.6157989228007181,4057.142857142857,1856.4102564102564,1.0,4.7146813697336345,212.10341093665403,13.32824427480916,-74.25954198473282,-48.51908396946565,-0.9760119940029984,-0.034482758620689655,-0.545727136431784,931.8681318681319,97.03577641500078,31.501143143163063,
1770984784290.0796,3.3478260869565215,-4.641304347826087,0.21739130434782608,1.20885697187313,-8.517055655296229,-2.09934171154997,4048.3516483516482,1846.153846153846,1.0,4.7146813697336345,212.10341093665403,21.832061068702288,-122.38167938931298,-41.49618320610687,-0.9820089955022488,-0.04047976011994003,-0.5412293853073463,779.4871794871794,97.032928125992,31.501143143163063,
1770984784309.6108,2.934782608695652,-3.8478260869565215,0.16304347826086957,1.3357271095152603,-7.066427289048474,-2.5134649910233393,4035.164835164835,1819.7802197802196,1.0,4.709576138147567,212.33333333333331,13.435114503816793,-170.82442748091603,-47.31297709923664,-0.9790104947526237,-0.035982008995502246,-0.5157421289355322,716.4835164835164,97.03577641500078,31.501143143163063,
1770984784329.1418,1.8043478260869565,-4.25,-0.06521739130434782,-0.1627767803710353,-7.217235188509874,-2.319569120287253,4032.234432234432,1805.128205128205,1.0,4.709576138147567,212.33333333333331,2.8244274809160306,-238.04580152671755,-39.48091603053435,-0.9865067466266866,-0.041979010494752625,-0.4992503748125937,742.1245421245421,97.03577641500078,31.501143143163063,
1770984784348.6729,2.532608695652174,-4.228260869565217,-0.358695652173913,-0.22980251346499103,-7.5403949730700175,-2.7193297426690606,4058.6080586080584,1841.7582417582416,1.0,4.709576138147567,212.33333333333331,16.091603053435115,-290.68702290076334,-35.51145038167939,-0.9715142428785607,-0.026986506746626684,-0.4917541229385307,762.6373626373626,97.03577641500078,31.501143143163063,
1770984784368.204,3.717391304347826,-4.58695652173913,-0.44565217391304346,1.2399760622381808,-7.650508677438659,-3.035308198683423,4042.490842490842,1832.9670329670328,1.0,4.709576138147567,212.33333333333331,4.778625954198473,-309.46564885496184,-34.50381679389313,-0.9610194902548725,-0.06146926536731634,-0.4467766116941529,675.4578754578754,97.03577641500078,31.501143143163063,
1770984784387.735,3.8152173913043477,-4.510869565217392,-0.33695652173913043,1.8336325553560742,-7.935368043087971,-2.803111909036505,4030.7692307692305,1813.9194139194137,1.0,4.709576138147567,212.33333333333331,7.893129770992366,-309.1297709923664,-31.022900763358777,-0.952023988005997,-0.037481259370314844,-0.4257871064467766,576.5567765567765,97.03577641500078,31.501143143163063,
1770984784407.2664,3.6956521739130435,-4.489130434782608,-0.8478260869565217,1.5703171753441052,-7.8444045481747455,-3.3297426690604426,4057.142857142857,1843.2234432234432,1.0,4.709576138147567,212.33333333333331,14.50381679389313,-291.8625954198473,-20.198473282442748,-0.9415292353823088,-0.050974512743628186,-0.4077961019490255,624.9084249084249,97.03577641500078,31.501143143163063,
1770984784426.7974,3.4456521739130435,-4.391304347826087,-1.967391304347826,1.4889287851585877,-7.715140634350688,-4.454817474566128,4057.142857142857,1852.0146520146518,1.0,4.709576138147567,212.33333333333331,15.96946564885496,-262.9465648854962,-7.770992366412213,-0.9205397301349325,-0.038980509745127435,-0.3868065967016492,834.4322344322344,97.02723155637214,31.501143143163063,
1770984784446.3284,2.467391304347826,-4.369565217391305,-2.684782608695652,0.5457809694793536,-7.561938958707361,-5.307001795332137,4060.07326007326,1861.5384615384614,1.0,4.709576138147567,212.33333333333331,17.66412213740458,-243.3740458015267,3.450381679389313,-0.9115442278860569,-0.047976011994003,-0.37631184407796103,1109.89010989011,97.03577641500078,31.501143143163063,
1770984784465.8596,1.826086956521739,-4.782608695652174,-3.2282608695652173,-0.45002992220227406,-7.882704967085577,-5.97965290245362,4057.142857142857,1857.142857142857,1.0,4.704470906561499,212.56375474769396,14.48854961832061,-241.34351145038167,8.67175572519084,-0.9025487256371814,-0.04497751124437781,-0.3658170914542728,1360.4395604395604,97.03862470680883,31.501143143163063,
1770984784485.3906,1.4130434782608696,-5.141304347826087,-2.934782608695652,-0.5601436265709157,-8.459605026929982,-5.8719329742669055,4030.7692307692305,1820.5128205128203,1.0,4.709576138147567,212.33333333333331,20.793893129770993,-252.4732824427481,12.900763358778626,-0.8845577211394302,-0.0239880059970015,-0.35982008995502246,1537.7289377289376,97.03007983978246,31.501143143163063,
1770984784504.922,-1.141304347826087,-4.728260869565217,-2.043478260869565,-3.0281268701376423,-7.973668461998803,-4.991023339317774,4058.6080586080584,1839.5604395604394,1.0,4.704470906561499,212.56375474769396,36.167938931297705,-316.29007633587787,4.748091603053435,-0.8620689655172413,-0.01649175412293853,-0.35082458770614694,1636.6300366300366,97.03007983978246,31.501143143163063,
1770984784524.453,-3.7065217391304346,-6.532608695652174,-1.4239130434782608,-6.618791143028127,-9.453022142429683,-3.6193895870736084,4041.0256410256407,1826.3736263736262,1.0,4.704470906561499,212.56375474769396,45.6793893129771,-461.2977099236641,-22.427480916030532,-0.8395802098950524,-0.046476761619190406,-0.3313343328335832,1670.3296703296703,97.03862470680883,31.501143143163063,
1770984784543.984,-0.9130434782608695,-6.739130434782608,-3.0978260869565215,-3.9186116098144823,-10.475164572112508,-5.65409934171155,4058.6080586080584,1847.6190476190475,1.0,4.704470906561499,212.56375474769396,85.48091603053435,-500.2595419847328,-46.717557251908396,-0.793103448275862,-0.038980509745127435,-0.3313343328335832,1654.9450549450548,97.02723155637214,31.501143143163063,
1770984784563.5151,-1.5108695652173914,-5.706521739130435,-3.358695652173913,-4.134051466187912,-9.053261520047876,-6.391382405745063,4058.6080586080584,1853.4798534798533,1.0,4.699365674975432,212.79467680608363,112.53435114503816,-500.2595419847328,-48.50381679389313,-0.7586206896551724,-0.020989505247376312,-0.34782608695652173,1611.7216117216117,97.03577641500078,31.501143143163063,
1770984784583.046,-1.4891304347826086,-5.934782608695652,-3.3804347826086953,-4.51705565529623,-9.223219628964692,-6.214242968282465,4057.142857142857,1854.212454212454,1.0,4.699365674975432,212.79467680608363,112.36641221374046,-500.2595419847328,-46.10687022900763,-0.7211394302848575,-0.014992503748125937,-0.36881559220389803,1539.194139194139,97.03007983978246,31.501143143163063,
1770984784602.5774,0.6956521739130435,-6.793478260869565,-4.717391304347826,-1.9413524835427887,-10.312387791741472,-7.695990424895272,4043.9560439560437,1831.5018315018315,1.0,4.699365674975432,212.79467680608363,107.98473282442748,-480.6564885496183,-48.916030534351144,-0.7076461769115442,-0.004497751124437781,-0.38980509745127434,1475.4578754578754,97.03577641500078,31.501143143163063,
1770984784622.1084,1.717391304347826,-5.260869565217392,-3.5869565217391304,-0.5840813883901855,-8.63674446439258,-6.783961699581089,4057.142857142857,1848.3516483516482,1.0,4.699365674975432,212.79467680608363,106.45801526717557,-412.53435114503816,-61.38931297709924,-0.6836581709145427,-0.004497751124437781,-0.39430284857571213,1453.4798534798533,97.03007983978246,31.501143143163063,
1770984784641.6394,0.7826086956521738,-6.358695652173913,-3.152173913043478,-1.644524236983842,-9.807301017354877,-5.9844404548174746,4030.7692307692305,1817.5824175824175,1.0,4.694260443389363,213.02610114192495,80.76335877862596,-362.03053435114504,-62.51908396946565,-0.6626686656671664,0.022488755622188904,-0.43778110944527737,1482.7838827838827,97.032928125992,31.501143143163063,
1770984784661.171,0.532608695652174,-5.576086956521739,-1.5217391304347825,-1.397965290245362,-9.28785158587672,-5.491322561340515,4057.142857142857,1844.6886446886447,1.0,4.694260443389363,213.02610114192495,86.21374045801527,-330.8854961832061,-68.85496183206106,-0.6506746626686657,0.01649175412293853,-0.46176911544227883,1569.9633699633698,97.03007983978246,31.501143143163063,
1770984784680.7017,0.5760869565217391,-6.271739130434782,-0.8695652173913043,-2.1137043686415318,-9.488928785158587,-3.760622381807301,4039.560439560439,1827.106227106227,1.0,4.694260443389363,213.02610114192495,68.87022900763358,-323.2671755725191,-73.08396946564885,-0.6326836581709145,0.010494752623688156,-0.4872563718140929,1673.9926739926739,97.032928125992,31.501143143163063,
1770984784700.233,0.32608695652173914,-5.9021739130434785,0.8478260869565217,-1.2375822860562538,-9.70197486535009,-3.025733093955715,4030.7692307692305,1811.7216117216117,1.0,4.694260443389363,213.02610114192495,67.63358778625954,-303.08396946564886,-64.70229007633587,-0.6266866566716641,0.013493253373313342,-0.5187406296851574,1728.2051282051282,97.03577641500078,31.501143143163063,
1770984784719.764,0.32608695652173914,-6.065217391304348,2.1847826086956523,-2.582884500299222,-9.127468581687612,-0.6008378216636744,4058.6080586080584,1843.2234432234432,1.0,4.694260443389363,213.02610114192495,58.27480916030534,-313.98473282442745,-66.18320610687023,-0.6281859070464767,0.0014992503748125937,-0.5292353823088456,1723.8095238095236,97.03577641500078,31.501143143163063,
1770984784739.295,1.7934782608695652,-5.826086956521739,1.8804347826086956,-0.8928785158587672,-9.687612208258528,-0.059844404548174746,4058.6080586080584,1852.0146520146518,1.0,4.689155211803296,213.25802939575394,55.81679389312977,-323.46564885496184,-65.63358778625954,-0.623688155922039,0.017991004497751123,-0.5622188905547226,1689.3772893772893,97.03007983978246,31.501143143163063,
1770984784758.8262,2.630434782608696,-5.913043478260869,0.07608695652173914,0.10771992818671454,-9.08916816277678,-1.5583482944344704,4043.9560439560437,1831.5018315018315,1.0,4.684049980217227,213.49046321525884,54.51908396946565,-299.0687022900763,-60.13740458015267,-0.6206896551724138,0.02848575712143928,-0.6056971514242878,1633.6996336996335,97.03166878012398,31.511193180084227,
1770984784778.3572,3.217391304347826,-6.206521739130435,-0.5434782608695652,0.7995212447636146,-9.666068222621185,-3.052064631956912,4035.164835164835,1815.3846153846152,1.0,4.689155211803296,213.25802939575394,39.17557251908397,-238.77862595419847,-57.32824427480916,-0.6251874062968515,0.034482758620689655,-0.6386806596701649,1546.5201465201465,97.03451711260783,31.511193180084227,
1770984784797.8882,3.4891304347826084,-5.663043478260869,-0.3913043478260869,1.65409934171155,-9.388390185517654,-3.253141831238779,4058.6080586080584,1844.6886446886447,1.0,4.684049980217227,213.49046321525884,21.923664122137403,-163.1145038167939,-60.2442748091603,-0.6281859070464767,0.01649175412293853,-0.6356821589205397,1451.2820512820513,97.03736544789103,31.511193180084227,
1770984784817.4194,2.1739130434782608,-5.673913043478261,0.6739130434782609,0.5888689407540395,-9.002992220227409,-2.4272890484739675,4060.07326007326,1859.3406593406592,1.0,4.684049980217227,213.49046321525884,8.320610687022901,-97.2824427480916,-58.534351145038165,-0.6251874062968515,0.004497751124437781,-0.6416791604197901,1385.3479853479853,97.03451711260783,31.511193180084227,
1770984784836.9504,1.2065217391304348,-5.554347826086956,1.9456521739130435,-1.7905445840813883,-8.304009575104727,-0.8761220825852782,4041.0256410256407,1832.234432234432,1.0,4.678944748631159,213.72340425531914,1.3435114503816794,-53.343511450381676,-36.94656488549618,-0.6401799100449775,0.014992503748125937,-0.6506746626686657,1341.3919413919414,97.03736544789103,31.511193180084227,
1770984784856.4817,2.369565217391304,-7.706521739130435,0.9021739130434783,0.5745062836624776,-10.78396169958109,-1.2495511669658887,4061.5384615384614,1850.5494505494505,1.0,4.678944748631159,213.72340425531914,-24.106870229007633,-31.709923664122137,-29.190839694656486,-0.6401799100449775,0.01199400299850075,-0.6461769115442278,1269.5970695970695,97.03736544789103,31.511193180084227,
1770984784876.0127,-0.021739130434782608,-6.913043478260869,1.2934782608695652,-2.546977857570317,-10.92519449431478,-1.395571514063435,4060.07326007326,1860.8058608058607,1.0,4.678944748631159,213.72340425531914,-20.12213740458015,8.595419847328245,-23.19083969465649,-0.6401799100449775,0.04497751124437781,-0.6446776611694153,1122.3443223443223,97.03736544789103,31.511193180084227,
1770984784895.5437,2.1739130434782608,-4.83695652173913,1.6630434782608696,-0.7588270496708558,-8.392579293836025,-0.7684021543985637,4058.6080586080584,1857.142857142857,1.0,4.678944748631159,213.72340425531914,-21.0381679389313,20.900763358778626,-12.916030534351144,-0.6371814092953523,0.020989505247376312,-0.6401799100449775,975.8241758241758,97.03736544789103,31.511193180084227,
1770984784915.075,3.782608695652174,-5.065217391304348,1.826086956521739,1.7713943746259724,-8.177139437462596,-0.7492519449431478,4060.07326007326,1862.2710622710622,1.0,4.678944748631159,213.72340425531914,-18.717557251908396,87.32824427480915,8.274809160305344,-0.6401799100449775,0.01199400299850075,-0.6476761619190404,883.5164835164835,97.03166878012398,31.511193180084227,
1770984784934.606,5.076086956521739,-5.728260869565217,1.5543478260869565,3.418312387791741,-9.048473967684021,-0.9287851585876721,4036.6300366300366,1830.7692307692307,1.0,4.673839517045092,213.95685417804478,-28.12213740458015,209.87786259541983,30.412213740458014,-0.6251874062968515,0.01199400299850075,-0.6251874062968515,852.0146520146519,97.03736544789103,31.511193180084227,
1770984784954.1372,2.7391304347826084,-6.228260869565217,1.1630434782608696,1.0460801915020945,-9.637342908438061,-1.0771992818671454,4032.234432234432,1808.7912087912086,1.0,4.673839517045092,213.95685417804478,-25.43511450381679,335.2213740458015,39.862595419847324,-0.6401799100449775,0.013493253373313342,-0.5862068965517241,901.098901098901,97.03451711260783,31.511193180084227,
1770984784973.6682,1.8695652173913042,-6.489130434782608,0.11956521739130435,-0.46918013165769,-9.895870736086176,-2.2501496110113703,4058.6080586080584,1842.4908424908424,1.0,4.673839517045092,213.95685417804478,-38.44274809160305,415.9389312977099,37.43511450381679,-0.6416791604197901,0.03298350824587706,-0.5622188905547226,1013.9194139194138,97.04591047053664,31.511193180084227,
1770984784993.1992,0.8695652173913043,-6.75,-0.8478260869565217,-1.3093955715140635,-10.180730101735488,-3.336923997606224,4039.560439560439,1826.3736263736262,1.0,4.673839517045092,213.95685417804478,-36.65648854961832,476.3358778625954,43.32824427480916,-0.6386806596701649,0.02848575712143928,-0.5217391304347826,1111.3553113553112,97.02882045043945,31.511193180084227,
1770984785012.7305,-1.1195652173913042,-7.141304347826087,-2.402173913043478,-3.50688210652304,-10.616397366846199,-4.988629563135847,4060.07326007326,1854.212454212454,1.0,4.668734285459024,214.19081465281573,-43.26717557251908,500.2748091603053,44.0,-0.6551724137931034,0.025487256371814093,-0.48575712143928035,1174.3589743589744,97.03736544789103,31.511193180084227,
1770984785032.2617,-2.4456521739130435,-7.173913043478261,-0.13043478260869565,-5.194494314781568,-10.712148414123279,-3.1693596648713345,4058.6080586080584,1855.6776556776556,1.0,4.668734285459024,214.19081465281573,-44.82442748091603,461.89312977099235,45.45038167938931,-0.6686656671664167,0.041979010494752625,-0.4542728635682159,1196.3369963369962,97.04021378597356,31.511193180084227,
1770984785051.7927,-1.5978260869565217,-7.010869565217391,0.03260869565217391,-4.167564332734889,-10.49670855774985,-2.3530819868342308,4057.142857142857,1854.9450549450548,1.0,4.668734285459024,214.19081465281573,-31.63358778625954,470.59541984732823,42.595419847328245,-0.6956521739130435,0.04047976011994003,-0.42278860569715143,1191.2087912087911,97.03451711260783,31.511193180084227,
1770984785071.3235,-3.032608695652174,-6.673913043478261,-0.6413043478260869,-5.766606822262118,-10.087372830640335,-3.1549970077797727,4041.0256410256407,1830.7692307692307,1.0,4.668734285459024,214.19081465281573,-26.442748091603054,382.5038167938931,28.62595419847328,-0.712143928035982,0.029985007496251874,-0.42728635682158916,1190.4761904761904,97.03451711260783,31.511193180084227,
1770984785090.8547,-2.532608695652174,-6.25,-1.934782608695652,-6.063435068821065,-9.864751645721125,-4.090963494913225,4058.6080586080584,1849.084249084249,1.0,4.663629053872956,214.42528735632183,-21.893129770992367,300.7480916030534,25.48091603053435,-0.7241379310344828,0.013493253373313342,-0.4047976011994003,1194.1391941391942,97.03166878012398,31.511193180084227,
1770984785110.386,-0.2717391304347826,-5.934782608695652,-1.75,-3.7821663674446437,-9.43147815679234,-4.864153201675643,4032.234432234432,1813.186813186813,1.0,4.663629053872956,214.42528735632183,-22.366412213740457,237.6946564885496,17.740458015267176,-0.7406296851574212,0.022488755622188904,-0.40629685157421286,1220.5128205128203,97.03736544789103,31.511193180084227,
1770984785129.917,0.33695652173913043,-5.989130434782608,-0.6630434782608695,-2.094554159186116,-9.352483542788748,-3.739078396169958,4058.6080586080584,1843.956043956044,1.0,4.663629053872956,214.42528735632183,-41.29770992366412,238.83969465648855,9.16030534351145,-0.7481259370314842,0.022488755622188904,-0.3868065967016492,1328.2051282051282,97.02597212355424,31.511193180084227,
1770984785149.4482,-0.010869565217391304,-6.0,-0.021739130434782608,-2.1256732495511668,-9.122681029323758,-2.779174147217235,4038.0952380952376,1820.5128205128203,1.0,4.663629053872956,214.42528735632183,-46.50381679389313,235.4656488549618,16.244274809160306,-0.7661169415292354,0.029985007496251874,-0.38530734632683655,1512.087912087912,97.04021378597356,31.511193180084227,
1770984785168.9792,1.1304347826086956,-6.663043478260869,-0.8369565217391304,-1.874326750448833,-9.979652902453621,-3.1956912028725313,4060.07326007326,1852.7472527472526,1.0,4.658523822286889,214.6602739726027,-63.41984732824427,233.06870229007632,3.6488549618320607,-0.7721139430284857,0.01199400299850075,-0.37631184407796103,1690.10989010989,97.04021378597356,31.511193180084227,
1770984785188.5105,1.891304347826087,-6.554347826086956,-1.6304347826086956,-0.7851585876720526,-10.247755834829443,-3.8491921005385996,4058.6080586080584,1854.9450549450548,1.0,4.658523822286889,214.6602739726027,-63.679389312977094,253.4503816793893,-3.618320610687023,-0.7961019490254873,0.01199400299850075,-0.3658170914542728,1776.5567765567764,97.03736544789103,31.511193180084227,
1770984785208.0415,2.1739130434782608,-6.293478260869565,-1.8695652173913042,0.0,-9.795332136445243,-4.6271693596648715,4057.142857142857,1854.212454212454,1.0,4.658523822286889,214.6602739726027,-68.44274809160305,288.99236641221376,-0.9618320610687022,-0.808095952023988,0.005997001499250375,-0.36431784107946025,1761.9047619047617,97.03736544789103,31.511193180084227,
1770984785227.5725,1.5434782608695652,-6.065217391304348,-1.858695652173913,-0.47875523638539796,-9.508078994614003,-4.670257330939557,4057.142857142857,1854.212454212454,1.0,4.658523822286889,214.6602739726027,-72.99236641221374,301.70992366412213,-2.4580152671755724,-0.8305847076461769,-0.004497751124437781,-0.3658170914542728,1688.6446886446886,97.03736544789103,31.511193180084227,
1770984785247.1035,1.065217391304348,-5.891304347826087,-1.7282608695652173,-1.2567324955116697,-9.345302214242968,-4.473967684021544,4057.142857142857,1854.212454212454,1.0,4.653418590700821,214.8957761930883,-73.11450381679388,289.8625954198473,-2.2442748091603053,-0.8440779610194902,0.005997001499250375,-0.37181409295352325,1601.4652014652013,97.03451711260783,31.511193180084227,
1770984785266.6348,0.8478260869565217,-6.032608695652174,-1.8804347826086956,-1.374027528426092,-9.36684619988031,-4.665469778575703,4058.6080586080584,1854.9450549450548,1.0,4.653418590700821,214.8957761930883,-70.70229007633587,272.85496183206106,-4.198473282442748,-0.8635682158920539,0.0,-0.3748125937031484,1489.3772893772893,97.04021378597356,31.511193180084227,
1770984785286.1658,0.45652173913043476,-6.358695652173913,-1.467391304347826,-1.9413524835427887,-9.65409934171155,-4.2513464991023335,4058.6080586080584,1855.6776556776556,1.0,4.653418590700821,214.8957761930883,-65.7557251908397,243.70992366412213,-7.587786259541985,-0.8710644677661169,0.0029985007496251873,-0.36881559220389803,1341.3919413919414,97.03451711260783,31.511193180084227,
1770984785305.697,1.1521739130434783,-6.260869565217391,-1.5652173913043477,-1.4314781567923398,-9.7737881508079,-4.256134051466188,4038.0952380952376,1823.4432234432234,1.0,4.653418590700821,214.8957761930883,-60.07633587786259,209.40458015267174,-12.335877862595419,-0.8875562218890555,0.01649175412293853,-0.3913043478260869,1200.7326007326008,97.03166878012398,31.511193180084227,
1770984785325.228,1.4891304347826086,-6.130434782608695,-1.5543478260869565,-0.9239976062238181,-9.570317175344105,-4.311190903650509,4058.6080586080584,1846.8864468864467,1.0,4.653418590700821,214.8957761930883,-51.64885496183206,175.12977099236642,-14.290076335877862,-0.8875562218890555,0.013493253373313342,-0.3958020989505247,1122.3443223443223,97.03736544789103,31.511193180084227,
1770984785344.759,2.0217391304347827,-6.184782608695652,-1.3369565217391304,-0.3399162178336326,-9.61340514661879,-4.081388390185517,4058.6080586080584,1853.4798534798533,1.0,4.648313359114754,215.13179571663917,-46.93129770992366,147.89312977099237,-16.83969465648855,-0.8995502248875562,0.0074962518740629685,-0.40629685157421286,1129.6703296703297,97.03736544789103,31.511193180084227,
1770984785364.2903,2.5869565217391304,-6.032608695652174,-1.2717391304347825,0.3207660083782166,-9.517654099341712,-3.947336923997606,4058.6080586080584,1854.9450549450548,1.0,4.648313359114754,215.13179571663917,-43.75572519083969,123.8473282442748,-22.091603053435115,-0.9010494752623688,-0.019490254872563718,-0.4017991004497751,1208.058608058608,97.03736544789103,31.511193180084227,
1770984785383.8213,2.5652173913043477,-5.804347826086956,-0.9239130434782609,0.3973668461998803,-9.223219628964692,-3.6529024536205865,4038.0952380952376,1823.4432234432234,1.0,4.648313359114754,215.13179571663917,-38.82442748091603,106.77862595419847,-23.297709923664122,-0.9115442278860569,-0.013493253373313342,-0.40629685157421286,1324.5421245421244,97.03451711260783,31.511193180084227,
1770984785403.3523,2.684782608695652,-5.6521739130434785,-0.9456521739130435,0.5098743267504489,-9.04129263913824,-3.521244763614602,4041.0256410256407,1821.9780219780218,1.0,4.648313359114754,215.13179571663917,-36.045801526717554,98.54961832061068,-23.63358778625954,-0.9160419790104948,-0.022488755622188904,-0.416791604197901,1434.4322344322343,97.03736544789103,31.511193180084227,
1770984785422.8835,2.9782608695652173,-5.195652173913043,-0.9891304347826086,0.7468581687612208,-8.603231597845602,-3.571514063435069,4032.234432234432,1805.128205128205,1.0,4.643208127528686,215.36833424958766,-32.99236641221374,95.46564885496183,-22.27480916030534,-0.9235382308845577,-0.026986506746626684,-0.4077961019490255,1514.2857142857142,97.03736544789103,31.511193180084227,
1770984785442.4146,4.021739130434782,-5.108695652173913,-1.141304347826087,1.8216636744464392,-8.383004189108318,-3.798922800718133,4058.6080586080584,1841.7582417582416,1.0,4.643208127528686,215.36833424958766,-30.366412213740457,85.8473282442748,-21.206106870229007,-0.9430284857571214,-0.010494752623688156,-0.41379310344827586,1549.4505494505493,97.04021378597356,31.511193180084227,
1770984785461.9458,4.967391304347826,-5.782608695652174,-1.4782608695652173,2.9275882704967087,-9.151406343506881,-4.205864751645721,4038.0952380952376,1819.7802197802196,1.0,4.643208127528686,215.36833424958766,-41.32824427480916,93.38931297709924,-14.305343511450381,-0.9340329835082458,-0.008995502248875561,-0.41379310344827586,1562.6373626373625,97.03736544789103,31.511193180084227,
1770984785481.4768,5.228260869565217,-5.83695652173913,-1.6630434782608696,3.320167564332735,-9.304608019150209,-4.306403351286654,4032.234432234432,1805.128205128205,1.0,4.643208127528686,215.36833424958766,-41.099236641221374,114.42748091603053,-3.480916030534351,-0.9400299850074962,-0.01649175412293853,-0.43928035982008995,1578.021978021978,97.03736544789103,31.511193180084227,
1770984785501.008,4.391304347826087,-5.293478260869565,-1.0543478260869565,2.338719329742669,-9.048473967684021,-3.734290843806104,4060.07326007326,1847.6190476190475,1.0,4.638102895942618,215.60539350577872,-32.2442748091603,138.76335877862596,3.5572519083969465,-0.9550224887556221,-0.02848575712143928,-0.43928035982008995,1575.091575091575,97.03451711260783,31.511193180084227,
1770984785520.539,4.326086956521739,-4.706521739130435,-0.5217391304347826,2.1735487731897067,-8.263315380011969,-3.3656493117893476,4057.142857142857,1858.6080586080584,1.0,4.638102895942618,215.60539350577872,-26.946564885496183,151.23664122137404,2.778625954198473,-0.9535232383808095,-0.038980509745127435,-0.43928035982008995,1534.065934065934,97.03451711260783,31.511193180084227,
1770984785540.07,5.010869565217392,-4.554347826086956,-0.5108695652173912,2.800718132854578,-7.9401555954518255,-3.250748055056852,4058.6080586080584,1856.4102564102564,1.0,4.638102895942618,215.60539350577872,-33.099236641221374,148.15267175572518,-4.564885496183206,-0.9670164917541229,-0.0239880059970015,-0.4542728635682159,1424.9084249084249,97.03166878012398,31.511193180084227,
1770984785559.6013,4.760869565217392,-4.293478260869565,0.13043478260869565,3.202872531418312,-7.648114901256732,-2.6307600239377615,4061.5384615384614,1857.142857142857,1.0,4.63299766435655,215.84297520661156,-36.916030534351144,141.31297709923663,-3.8167938931297707,-0.9655172413793103,-0.04047976011994003,-0.4662668665667166,1262.2710622710622,97.03166878012398,31.511193180084227,
1770984785579.1323,5.663043478260869,-4.25,-0.2934782608695652,3.6313584679832434,-7.499700777977259,-2.4488330341113107,4061.5384615384614,1856.4102564102564,1.0,4.63299766435655,215.84297520661156,-40.5648854961832,128.10687022900763,-1.3893129770992365,-0.9730134932533733,-0.043478260869565216,-0.46176911544227883,1072.5274725274724,97.03166878012398,31.511193180084227,
1770984785598.6636,5.076086956521739,-4.206521739130435,0.21739130434782608,3.514063435068821,-7.442250149611011,-2.8509874326750446,4061.5384615384614,1856.4102564102564,1.0,4.63299766435655,215.84297520661156,-38.99236641221374,119.31297709923663,-3.83206106870229,-0.9760119940029984,-0.029985007496251874,-0.47976011994003,873.992673992674,97.03166878012398,31.511193180084227,
1770984785618.1946,6.054347826086956,-4.228260869565217,1.3695652173913042,3.535607420706164,-7.4590065828845,-1.3357271095152603,4039.560439560439,1830.03663003663,1.0,4.63299766435655,215.84297520661156,-30.85496183206107,80.74809160305344,-13.221374045801527,-0.9775112443778111,-0.035982008995502246,-0.49025487256371814,705.4945054945055,97.02882045043945,31.511193180084227,
1770984785637.7256,6.565217391304348,-4.293478260869565,1.3695652173913042,4.785158587672052,-7.552363853979653,-0.8473967684021544,4035.164835164835,1814.6520146520145,1.0,4.627892432770482,216.08108108108107,-24.50381679389313,41.17557251908397,-15.709923664122137,-0.9715142428785607,-0.03298350824587706,-0.4962518740629685,600.7326007326006,97.03166878012398,31.511193180084227,
1770984785657.2568,6.532608695652174,-4.163043478260869,0.9891304347826086,4.756433273488929,-7.454219030520646,-1.3093955715140635,4061.5384615384614,1844.6886446886447,1.0,4.63299766435655,215.84297520661156,-12.366412213740457,24.748091603053435,-21.16030534351145,-0.9805097451274363,-0.050974512743628186,-0.4947526236881559,542.1245421245421,97.03736544789103,31.511193180084227,
1770984785676.7878,6.9021739130434785,-4.282608695652174,0.2608695652173913,5.108318372232196,-7.4374625972471575,-1.9605026929982046,4060.07326007326,1859.3406593406592,1.0,4.627892432770482,216.08108108108107,-4.824427480916031,17.63358778625954,-21.862595419847327,-0.9700149925037481,-0.041979010494752625,-0.48575712143928035,499.6336996336996,97.02882045043945,31.511193180084227,
1770984785696.3188,6.163043478260869,-4.891304347826087,-0.18478260869565216,4.703770197486535,-7.954518252543387,-2.4464392579293834,4039.560439560439,1830.7692307692307,1.0,4.627892432770482,216.08108108108107,-1.6793893129770991,12.977099236641221,-19.832061068702288,-0.9775112443778111,-0.046476761619190406,-0.48425787106446777,502.56410256410254,97.03166878012398,31.511193180084227,
1770984785715.85,5.33695652173913,-5.684782608695652,-1.0869565217391304,3.7821663674446437,-8.916816277678038,-3.4087372830640335,4038.0952380952376,1816.8498168498168,1.0,4.627892432770482,216.08108108108107,-5.603053435114504,-3.633587786259542,-25.63358778625954,-0.9745127436281859,-0.02848575712143928,-0.4947526236881559,613.1868131868132,97.03451711260783,31.511193180084227,
1770984785735.381,5.576086956521739,-5.706521739130435,-2.510869565217391,3.3871932974266907,-9.196888090963494,-4.615200478755236,4033.6996336996335,1810.989010989011,1.0,4.627892432770482,216.08108108108107,4.396946564885496,-19.267175572519083,-32.13740458015267,-0.9760119940029984,-0.026986506746626684,-0.4977511244377811,819.7802197802197,97.03736544789103,31.511193180084227,
1770984785754.9124,5.956521739130435,-5.413043478260869,-3.3260869565217392,4.148414123279474,-8.871334530221423,-6.513464991023339,4060.07326007326,1849.8168498168498,1.0,4.627892432770482,216.08108108108107,16.65648854961832,-5.893129770992366,-29.63358778625954,-0.9820089955022488,-0.038980509745127435,-0.4977511244377811,1060.8058608058607,97.03577641500078,31.501143143163063,
1770984785774.4434,5.521739130434782,-5.673913043478261,-2.652173913043478,3.8204667863554755,-8.983842010771992,-5.697187312986236,4035.164835164835,1821.245421245421,1.0,4.627892432770482,216.08108108108107,17.297709923664122,26.534351145038165,-29.31297709923664,-0.9790104947526237,-0.05847076461769115,-0.4932533733133433,1297.4358974358975,97.03577641500078,31.501143143163063,
1770984785793.9744,5.33695652173913,-5.576086956521739,-1.934782608695652,3.430281268701376,-9.08916816277678,-4.81149012567325,4049.8168498168498,1831.5018315018315,1.0,4.627892432770482,216.08108108108107,19.98473282442748,17.801526717557252,-33.51145038167939,-0.9790104947526237,-0.05247376311844078,-0.5007496251874063,1517.216117216117,97.03007983978246,31.501143143163063,
1770984785813.5056,6.184782608695652,-4.869565217391305,-1.0543478260869565,4.0837821663674445,-8.339916217833633,-3.719928186714542,4058.6080586080584,1849.084249084249,1.0,4.627892432770482,216.08108108108107,23.43511450381679,7.755725190839694,-21.66412213740458,-0.9895052473763118,-0.05847076461769115,-0.505247376311844,1702.5641025641025,97.03007983978246,31.501143143163063,
1770984785833.0366,6.706521739130435,-4.315217391304348,-1.141304347826087,4.940754039497307,-7.643327348892878,-3.8204667863554755,4057.142857142857,1853.4798534798533,1.0,4.627892432770482,216.08108108108107,14.67175572519084,6.946564885496183,-14.412213740458014,-0.985007496251874,-0.04947526236881559,-0.5037481259370314,1816.8498168498168,97.03577641500078,31.501143143163063,
1770984785852.568,6.25,-3.9782608695652173,-1.2391304347826086,4.46918013165769,-7.214841412327947,-4.009575104727708,4033.6996336996335,1820.5128205128203,1.0,4.627892432770482,216.08108108108107,2.3206106870229006,7.022900763358779,-12.519083969465647,-0.992503748125937,-0.035982008995502246,-0.5007496251874063,1863.003663003663,97.03007983978246,31.501143143163063,
1770984785872.0989,7.228260869565217,-3.891304347826087,-1.4021739130434783,5.378815080789946,-7.135846798324357,-4.146020347097546,4045.421245421245,1828.5714285714284,1.0,4.627892432770482,216.08108108108107,-11.129770992366412,16.47328244274809,-7.709923664122137,-0.9880059970014993,-0.047976011994003,-0.512743628185907,1854.9450549450548,97.02723155637214,31.501143143163063,
1770984785891.63,7.608695652173913,-4.33695652173913,-1.1521739130434783,5.94853381208857,-7.557151406343507,-3.8061041292639137,4030.7692307692305,1811.7216117216117,1.0,4.622787201184415,216.31971286581995,-18.83969465648855,29.2824427480916,-7.465648854961832,-0.9880059970014993,-0.050974512743628186,-0.5142428785607196,1785.3479853479853,97.03007983978246,31.501143143163063,
1770984785911.1611,7.33695652173913,-4.565217391304348,-1.6195652173913042,5.687612208258527,-7.842010771992818,-4.277678037103531,4057.142857142857,1842.4908424908424,1.0,4.627892432770482,216.08108108108107,-18.916030534351144,29.2824427480916,-6.625954198473282,-0.9820089955022488,-0.06146926536731634,-0.5007496251874063,1684.9816849816848,97.032928125992,31.501143143163063,
1770984785930.692,7.858695652173913,-4.445652173913043,-1.4021739130434783,5.740275284260921,-7.846798324356673,-4.464392579293836,4035.164835164835,1818.3150183150183,1.0,4.622787201184415,216.31971286581995,-16.50381679389313,24.519083969465647,-13.31297709923664,-0.9865067466266866,-0.05697151424287856,-0.4917541229385307,1589.7435897435896,97.03577641500078,31.501143143163063,
1770984785950.2234,8.66304347826087,-4.641304347826087,-0.7934782608695652,6.659485338120885,-7.837223219628965,-3.72950329144225,4032.234432234432,1804.3956043956043,1.0,4.622787201184415,216.31971286581995,-22.82442748091603,34.13740458015267,-15.343511450381678,-0.9835082458770614,-0.0704647676161919,-0.5082458770614693,1506.227106227106,97.032928125992,31.501143143163063,
1770984785969.7544,9.17391304347826,-4.989130434782608,-0.5543478260869565,7.502094554159186,-8.153201675643327,-3.214841412327947,4058.6080586080584,1841.7582417582416,1.0,4.622787201184415,216.31971286581995,-24.229007633587784,63.25190839694656,-20.091603053435115,-0.9940029985007496,-0.025487256371814093,-0.5097451274362819,1434.4322344322343,97.032928125992,31.501143143163063,
1770984785989.2854,10.065217391304348,-4.978260869565217,-0.4891304347826087,8.864153201675643,-8.27767803710353,-2.6163973668461997,4057.142857142857,1850.5494505494505,1.0,4.622787201184415,216.31971286581995,-22.137404580152673,99.74045801526717,-22.732824427480914,-0.9895052473763118,-0.038980509745127435,-0.5157421289355322,1394.139194139194,97.03577641500078,31.501143143163063,
1770984786008.817,7.83695652173913,-5.076086956521739,-0.03260869565217391,6.896469180131658,-8.442848593656493,-2.9658886894075405,4058.6080586080584,1854.9450549450548,1.0,4.622787201184415,216.31971286581995,-17.81679389312977,98.38167938931298,-34.33587786259542,-0.985007496251874,-0.07496251874062969,-0.5232383808095952,1382.4175824175823,97.03577641500078,31.501143143163063,
1770984786028.3477,7.989130434782608,-5.021739130434782,0.532608695652174,6.472770795930581,-8.402154398563734,-2.061041292639138,4046.8864468864467,1839.5604395604394,1.0,4.622787201184415,216.31971286581995,-13.938931297709923,91.63358778625954,-38.25954198473282,-0.9955022488755622,-0.05847076461769115,-0.5292353823088456,1371.4285714285713,97.032928125992,31.501143143163063,
1770984786047.879,7.521739130434782,-4.815217391304348,0.5978260869565217,6.05146618791143,-8.270496708557749,-1.7881508078994615,4058.6080586080584,1851.2820512820513,1.0,4.622787201184415,216.31971286581995,-7.572519083969465,91.95419847328245,-49.37404580152671,-1.0,-0.07646176911544228,-0.5397301349325337,1374.3589743589744,97.03577641500078,31.501143143163063,
1770984786067.41,7.315217391304348,-4.423913043478261,0.7717391304347826,5.608617594254937,-7.875523638539796,-1.8240574506283662,4058.6080586080584,1854.212454212454,1.0,4.622787201184415,216.31971286581995,-4.473282442748092,82.99236641221374,-55.679389312977094,-1.0059970014992503,-0.08545727136431784,-0.5442278860569715,1405.128205128205,97.03862470680883,31.501143143163063,
1770984786086.941,7.760869565217391,-4.010869565217392,0.9347826086956521,5.958108916816277,-7.3249551166965885,-1.637342908438061,4036.6300366300366,1828.5714285714284,1.0,4.622787201184415,216.31971286581995,-7.221374045801526,72.45801526717557,-61.57251908396946,-1.0,-0.08095952023988005,-0.5487256371814093,1424.1758241758241,97.03577641500078,31.501143143163063,
1770984786106.4722,7.4021739130434785,-3.9456521739130435,0.6086956521739131,5.9245960502693,-7.253141831238779,-1.632555356074207,4060.07326007326,1854.9450549450548,1.0,4.622787201184415,216.31971286581995,-13.435114503816793,70.59541984732824,-64.99236641221374,-1.0029985007496252,-0.09745127436281859,-0.56071964017991,1429.3040293040292,97.03577641500078,31.501143143163063,
1770984786126.0032,6.869565217391304,-4.010869565217392,0.6847826086956521,5.237582286056254,-7.169359664871334,-1.9533213644524237,4060.07326007326,1861.5384615384614,1.0,4.622787201184415,216.31971286581995,-13.267175572519083,70.32061068702289,-65.29770992366412,-1.0014992503748126,-0.095952023988006,-0.5547226386806596,1428.5714285714284,97.03007983978246,31.501143143163063,
1770984786145.5344,7.184782608695652,-3.9239130434782608,0.9021739130434783,5.409934171154997,-7.207660083782166,-1.8264512268102933,4057.142857142857,1856.4102564102564,1.0,4.622787201184415,216.31971286581995,-7.6183206106870225,69.22137404580153,-63.175572519083964,-1.0074962518740629,-0.10644677661169415,-0.5622188905547226,1402.197802197802,97.03007983978246,31.501143143163063,
1770984786165.0654,6.413043478260869,-3.8152173913043477,1.5869565217391304,4.825852782764811,-6.987432675044883,-0.940754039497307,4033.6996336996335,1821.245421245421,1.0,4.622787201184415,216.31971286581995,-6.1679389312977095,61.87786259541984,-59.2824427480916,-1.010494752623688,-0.08395802098950525,-0.5892053973013494,1372.8937728937728,97.032928125992,31.501143143163063,
1770984786184.5964,6.478260869565217,-3.4782608695652173,1.4456521739130435,4.684619988031119,-6.788749251944943,-0.8617594254937163,4049.8168498168498,1831.5018315018315,1.0,4.622787201184415,216.31971286581995,-2.0610687022900764,42.2442748091603,-52.213740458015266,-1.0,-0.10044977511244378,-0.5892053973013494,1342.1245421245421,97.03577641500078,31.501143143163063,
1770984786204.1277,6.489130434782608,-3.119565217391304,1.6956521739130435,4.720526630760024,-6.240574506283663,-0.6774386594853381,4058.6080586080584,1849.084249084249,1.0,4.627892432770482,216.08108108108107,-0.8396946564885496,23.954198473282442,-44.0763358778626,-1.0029985007496252,-0.11244377811094453,-0.5847076461769115,1306.9597069597069,97.03007983978246,31.501143143163063,
1770984786223.6587,6.489130434782608,-2.880434782608696,1.6195652173913042,4.677438659485338,-6.0323159784560145,-0.7420706163973668,4060.07326007326,1860.07326007326,1.0,4.627892432770482,216.08108108108107,-1.0229007633587786,4.778625954198473,-34.15267175572519,-1.0089955022488755,-0.1169415292353823,-0.568215892053973,1249.8168498168498,97.03007983978246,31.501143143163063,
1770984786243.1897,6.478260869565217,-2.5543478260869565,1.6739130434782608,4.631956912028725,-5.65409934171155,-0.6271693596648713,4036.6300366300366,1830.03663003663,1.0,4.627892432770482,216.08108108108107,-0.3969465648854962,-23.083969465648853,-23.297709923664122,-1.010494752623688,-0.10794602698650674,-0.5832083958020989,1186.080586080586,97.02723155637214,31.501143143163063,
1770984786262.721,6.630434782608695,-2.467391304347826,1.5,4.821065230400958,-5.529622980251347,-0.7971274685816876,4060.07326007326,1854.9450549450548,1.0,4.627892432770482,216.08108108108107,-3.679389312977099,-47.9236641221374,-11.877862595419847,-1.0059970014992503,-0.13043478260869565,-0.5787106446776612,1134.065934065934,97.02723155637214,31.501143143163063,
1770984786282.252,6.6521739130434785,-2.5217391304347827,1.141304347826087,4.873728306403351,-5.575104727707959,-1.2327947336923997,4060.07326007326,1861.5384615384614,1.0,4.627892432770482,216.08108108108107,-6.687022900763359,-67.17557251908397,-0.1984732824427481,-1.0119940029985006,-0.12143928035982009,-0.5787106446776612,1099.6336996336995,97.032928125992,31.501143143163063,
1770984786301.7832,6.130434782608695,-2.608695652173913,0.7826086956521738,4.438061041292639,-5.675643327348893,-1.668461998803112,4060.07326007326,1863.7362637362637,1.0,4.627892432770482,216.08108108108107,-12.67175572519084,-81.34351145038167,10.290076335877862,-1.0119940029985006,-0.12143928035982009,-0.5562218890554722,1074.7252747252746,97.02723155637214,31.501143143163063,
1770984786321.3142,5.065217391304348,-2.608695652173913,0.14130434782608695,3.2555356074207062,-5.6804308797127465,-2.367444643925793,4033.6996336996335,1824.1758241758241,1.0,4.627892432770482,216.08108108108107,-22.82442748091603,-102.97709923664122,15.725190839694656,-1.0029985007496252,-0.12293853073463268,-0.5547226386806596,1079.8534798534797,97.03577641500078,31.501143143163063,
1770984786340.8452,4.58695652173913,-2.4130434782608696,-0.3913043478260869,2.6235786953919806,-5.467384799521245,-3.0281268701376423,4051.282051282051,1838.095238095238,1.0,4.63299766435655,215.84297520661156,-37.46564885496183,-140.03053435114504,15.236641221374045,-1.0029985007496252,-0.10944527736131934,-0.5397301349325337,1101.8315018315018,97.03007983978246,31.501143143163063,
1770984786360.3765,4.293478260869565,-2.5217391304347827,-0.4782608695652174,2.4033512866546975,-5.4242968282465585,-3.020945541591861,4032.234432234432,1810.2564102564102,1.0,4.638102895942618,215.60539350577872,-53.89312977099237,-181.34351145038167,13.862595419847327,-1.0044977511244377,-0.10644677661169415,-0.5187406296851574,1104.7619047619046,97.04147300141611,31.501143143163063,
1770984786379.9077,5.4021739130434785,-3.4130434782608696,-1.3369565217391304,2.7025733093955715,-5.9437462597247155,-3.281867145421903,4058.6080586080584,1843.2234432234432,1.0,4.63299766435655,215.84297520661156,-65.26717557251908,-220.45801526717557,12.50381679389313,-1.0089955022488755,-0.10944527736131934,-0.5037481259370314,1066.6666666666665,97.03007983978246,31.501143143163063,
1770984786399.4387,8.576086956521738,-4.793478260869565,-2.402173913043478,5.115499700777977,-7.406343506882107,-4.521843207660083,4035.164835164835,1818.3150183150183,1.0,4.638102895942618,215.60539350577872,-47.70992366412214,-215.72519083969465,8.458015267175572,-0.9970014992503747,-0.10794602698650674,-0.4677661169415292,999.9999999999999,97.032928125992,31.501143143163063,
1770984786418.9695,11.989130434782608,-5.021739130434782,-2.7282608695652173,9.127468581687612,-8.464392579293836,-5.400359066427289,4060.07326007326,1851.2820512820513,1.0,4.638102895942618,215.60539350577872,-9.633587786259541,-138.36641221374046,21.954198473282442,-0.992503748125937,-0.10944527736131934,-0.46326836581709147,931.1355311355311,97.03577641500078,31.501143143163063,
1770984786438.5007,12.26086956521739,-4.326086956521739,-2.0978260869565215,11.346499102333931,-8.052663076002393,-5.235188509874327,4060.07326007326,1860.8058608058607,1.0,4.643208127528686,215.36833424958766,20.549618320610687,-29.66412213740458,41.19083969465649,-0.9865067466266866,-0.0944527736131934,-0.45727136431784104,895.2380952380952,97.032928125992,31.501143143163063,
1770984786458.032,10.630434782608695,-3.7717391304347827,-1.5434782608695652,9.857570317175345,-7.2052663076002395,-4.478755236385398,4058.6080586080584,1857.142857142857,1.0,4.643208127528686,215.36833424958766,24.50381679389313,64.09160305343511,51.63358778625954,-0.9940029985007496,-0.1199400299850075,-0.4542728635682159,964.8351648351647,97.03577641500078,31.501143143163063,
1770984786477.563,9.91304347826087,-3.793478260869565,-1.6304347826086956,8.785158587672052,-6.968282465589467,-4.351885098743267,4058.6080586080584,1857.142857142857,1.0,4.643208127528686,215.36833424958766,17.175572519083968,110.99236641221374,52.74809160305343,-0.9865067466266866,-0.0914542728635682,-0.4707646176911544,1152.3809523809523,97.03577641500078,31.501143143163063,
1770984786497.0942,8.630434782608695,-3.8260869565217392,-1.3369565217391304,7.5882704967085575,-7.114302812687014,-4.110113704368642,4052.7472527472523,1848.3516483516482,1.0,4.648313359114754,215.13179571663917,13.17557251908397,116.56488549618321,46.38167938931298,-0.9970014992503747,-0.10194902548725637,-0.48575712143928035,1380.952380952381,97.02723155637214,31.501143143163063,
1770984786516.6252,8.315217391304348,-3.608695652173913,-1.4130434782608696,6.783961699581089,-6.889287851585877,-4.069419509275883,4058.6080586080584,1847.6190476190475,1.0,4.653418590700821,214.8957761930883,2.183206106870229,95.43511450381679,37.25190839694656,-0.9910044977511244,-0.07496251874062969,-0.5007496251874063,1599.2673992673992,97.03007983978246,31.501143143163063,
1770984786536.1562,8.108695652173912,-3.608695652173913,-1.608695652173913,6.6140035906642725,-6.783961699581089,-4.236983842010772,4058.6080586080584,1853.4798534798533,1.0,4.653418590700821,214.8957761930883,-8.351145038167939,62.33587786259542,27.31297709923664,-0.9970014992503747,-0.09295352323838081,-0.4992503748125937,1759.7069597069597,97.0243832757611,31.501143143163063,
1770984786555.6875,8.08695652173913,-3.8152173913043477,-1.7934782608695652,6.453620586475164,-6.961101137043686,-4.481149012567325,4035.164835164835,1821.9780219780218,1.0,4.658523822286889,214.6602739726027,-16.366412213740457,31.923664122137403,19.358778625954198,-0.9940029985007496,-0.09745127436281859,-0.5082458770614693,1856.4102564102564,97.03007983978246,31.501143143163063,
1770984786575.2185,8.228260869565217,-3.8478260869565215,-1.7934782608695652,6.642728904847397,-7.107121484141232,-4.548174745661281,4058.6080586080584,1846.8864468864467,1.0,4.658523822286889,214.6602739726027,-16.580152671755723,11.099236641221374,8.274809160305344,-0.9970014992503747,-0.09295352323838081,-0.5037481259370314,1884.9816849816848,97.03862470680883,31.501143143163063,
1770984786594.7498,8.076086956521738,-3.8152173913043477,-1.717391304347826,6.575703171753441,-7.042489527229204,-4.485936564931179,4058.6080586080584,1853.4798534798533,1.0,4.658523822286889,214.6602739726027,-17.832061068702288,0.183206106870229,-0.8244274809160305,-0.9910044977511244,-0.08845577211394302,-0.5067466266866567,1822.7106227106226,97.03577641500078,31.501143143163063,
1770984786614.2808,7.880434782608695,-3.7282608695652173,-1.3043478260869565,6.257330939557152,-6.95870736086176,-4.028725314183124,4058.6080586080584,1854.9450549450548,1.0,4.663629053872956,214.42528735632183,-18.381679389312975,-9.404580152671755,-7.8473282442748085,-0.9895052473763118,-0.08245877061469264,-0.4932533733133433,1714.2857142857142,97.03007983978246,31.501143143163063,
1770984786633.8118,8.01086956521739,-3.793478260869565,-1.0869565217391304,6.412926391382405,-7.006582884500299,-3.7701974865350087,4058.6080586080584,1855.6776556776556,1.0,4.663629053872956,214.42528735632183,-20.748091603053435,-11.251908396946565,-14.961832061068701,-0.9910044977511244,-0.08845577211394302,-0.505247376311844,1581.6849816849815,97.032928125992,31.501143143163063,
1770984786653.343,7.902173913043478,-3.782608695652174,-0.9021739130434783,6.288450029922202,-7.032914422501496,-3.5619389587073607,4060.07326007326,1862.2710622710622,1.0,4.668734285459024,214.19081465281573,-20.061068702290076,-6.5038167938931295,-19.114503816793892,-1.0014992503748126,-0.08095952023988005,-0.48875562218890556,1463.7362637362637,97.03007983978246,31.501143143163063,
1770984786672.874,7.58695652173913,-3.6956521739130435,-0.8043478260869565,5.996409335727109,-6.93476959904249,-3.461400359066427,4058.6080586080584,1857.142857142857,1.0,4.668734285459024,214.19081465281573,-19.2824427480916,-0.48854961832061067,-19.236641221374047,-1.0,-0.08995502248875561,-0.4932533733133433,1375.8241758241757,97.032928125992,31.501143143163063,
1770984786692.405,7.195652173913043,-3.684782608695652,-0.7065217391304348,5.527229204069419,-6.906044284859365,-3.3153800119688808,4060.07326007326,1862.2710622710622,1.0,4.673839517045092,213.95685417804478,-19.572519083969464,4.183206106870228,-18.106870229007633,-1.0044977511244377,-0.0944527736131934,-0.4977511244377811,1316.4835164835165,97.03007983978246,31.501143143163063,
1770984786711.9363,7.163043478260869,-3.619565217391304,-0.7282608695652174,5.4410532615200475,-6.834230999401556,-3.3464991023339317,4036.6300366300366,1830.7692307692307,1.0,4.673839517045092,213.95685417804478,-19.297709923664122,7.404580152671755,-14.732824427480915,-1.0014992503748126,-0.09745127436281859,-0.5037481259370314,1290.10989010989,97.03577641500078,31.501143143163063,
1770984786731.4673,7.1521739130434785,-3.543478260869565,-0.9239130434782609,5.4171154997007775,-6.743267504488331,-3.5380011968880907,4060.07326007326,1854.9450549450548,1.0,4.678944748631159,213.72340425531914,-17.48091603053435,9.587786259541984,-10.702290076335878,-0.9895052473763118,-0.10344827586206896,-0.505247376311844,1296.7032967032967,97.03007983978246,31.501143143163063,
1770984786750.9983,7.032608695652174,-3.532608695652174,-0.9239130434782609,5.302214242968282,-6.709754637941352,-3.535607420706164,4060.07326007326,1862.2710622710622,1.0,4.684049980217227,213.49046321525884,-15.81679389312977,12.290076335877862,-6.702290076335878,-1.0044977511244377,-0.09295352323838081,-0.5007496251874063,1322.3443223443223,97.03087430868567,31.506168161478126,
1770984786770.5295,7.260869565217391,-3.532608695652174,-1.0434782608695652,5.532016756433273,-6.704967085577499,-3.6768402154398565,4060.07326007326,1863.7362637362637,1.0,4.684049980217227,213.49046321525884,-14.351145038167939,15.206106870229007,-0.7480916030534351,-0.9985007496251874,-0.0914542728635682,-0.4932533733133433,1349.4505494505493,97.03372261803234,31.506168161478126,
1770984786790.0603,7.467391304347826,-3.5543478260869565,-1.141304347826087,5.723518850987433,-6.71214841412328,-3.75344105326152,4060.07326007326,1864.4688644688642,1.0,4.689155211803296,213.25802939575394,-13.755725190839694,21.48091603053435,5.297709923664122,-0.9955022488755622,-0.08095952023988005,-0.5082458770614693,1372.161172161172,97.0365709301783,31.506168161478126,
1770984786809.5918,7.58695652173913,-3.6630434782608696,-1.076086956521739,5.8001196888090965,-6.793536804308797,-3.8420107719928187,4055.6776556776554,1851.2820512820513,1.0,4.689155211803296,213.25802939575394,-12.50381679389313,31.78625954198473,10.610687022900763,-1.0014992503748126,-0.10044977511244378,-0.5037481259370314,1379.4871794871794,97.03087430868567,31.506168161478126,
1770984786829.1228,8.021739130434783,-3.6739130434782608,-1.2391304347826086,6.216636744464393,-6.867743865948533,-3.772591262716936,4060.07326007326,1860.8058608058607,1.0,4.694260443389363,213.02610114192495,-12.396946564885496,50.900763358778626,17.099236641221374,-0.9955022488755622,-0.09895052473763118,-0.5082458770614693,1358.2417582417581,97.03087430868567,31.506168161478126,
1770984786848.654,7.728260869565217,-3.6630434782608696,-1.0326086956521738,6.219030520646319,-6.922800718132854,-3.949730700179533,4060.07326007326,1863.7362637362637,1.0,4.699365674975432,212.79467680608363,-7.511450381679389,63.37404580152671,21.770992366412212,-1.0029985007496252,-0.10644677661169415,-0.5097451274362819,1345.7875457875457,97.02802600213828,31.506168161478126,
1770984786868.185,9.0,-3.608695652173913,-0.5434782608695652,6.580490724117295,-6.771992818671454,-3.2555356074207062,4036.6300366300366,1830.7692307692307,1.0,4.704470906561499,212.56375474769396,-12.839694656488549,76.76335877862596,23.419847328244273,-0.9940029985007496,-0.08545727136431784,-0.52023988005997,1332.6007326007325,97.03087430868567,31.506168161478126,
1770984786887.716,9.5,-3.9565217391304346,-0.6086956521739131,8.028725314183124,-7.066427289048474,-3.2483542788749253,4061.5384615384614,1849.8168498168498,1.0,4.704470906561499,212.56375474769396,-17.832061068702288,100.25954198473282,28.534351145038165,-1.0044977511244377,-0.0914542728635682,-0.5352323838080959,1316.4835164835165,97.03087430868567,31.506168161478126,
1770984786907.2473,9.043478260869565,-4.0,-0.8152173913043478,7.842010771992818,-7.274685816876122,-3.5308198683423098,4060.07326007326,1860.07326007326,1.0,4.709576138147567,212.33333333333331,-15.083969465648854,123.80152671755725,30.687022900763356,-1.0014992503748126,-0.08845577211394302,-0.5337331334332833,1308.4249084249084,97.03372261803234,31.506168161478126,
1770984786926.7783,9.630434782608695,-3.7065217391304346,-0.7608695652173912,7.8276481149012564,-7.047277079593058,-3.291442250149611,4058.6080586080584,1857.142857142857,1.0,4.7146813697336345,212.10341093665403,-15.358778625954198,127.48091603053435,24.229007633587784,-0.9985007496251874,-0.08695652173913043,-0.56071964017991,1286.4468864468863,97.03087430868567,31.506168161478126,
1770984786946.3096,9.608695652173912,-3.858695652173913,-0.532608695652174,8.258527827648114,-7.102333931777379,-3.296229802513465,4060.07326007326,1863.003663003663,1.0,4.7146813697336345,212.10341093665403,-18.229007633587784,121.20610687022901,22.35114503816794,-1.0044977511244377,-0.06146926536731634,-0.5727136431784108,1254.9450549450548,97.02802600213828,31.506168161478126,
1770984786965.8406,9.543478260869565,-3.760869565217391,-0.08695652173913043,8.138839018551765,-7.030520646319569,-2.7289048473967683,4055.6776556776554,1850.5494505494505,1.0,4.7197866013197025,211.87398593834504,-19.221374045801525,103.05343511450381,10.106870229007633,-1.0029985007496252,-0.09745127436281859,-0.5787106446776612,1216.8498168498168,97.03372261803234,31.506168161478126,
1770984786985.3716,9.83695652173913,-3.7717391304347827,0.11956521739130435,8.227408737283064,-7.020945541591861,-2.566128067025733,4058.6080586080584,1854.212454212454,1.0,4.7248918329057705,211.645056726094,-22.97709923664122,82.12213740458014,-7.297709923664121,-1.0059970014992503,-0.06746626686656672,-0.5892053973013494,1180.2197802197802,97.03372261803234,31.506168161478126,
1770984787004.9028,10.217391304347826,-4.054347826086956,-0.09782608695652173,9.019748653500898,-7.202872531418312,-2.7528426092160383,4058.6080586080584,1855.6776556776556,1.0,4.729997064491838,211.41662169454938,-27.34351145038168,79.25190839694656,-20.62595419847328,-1.0044977511244377,-0.10194902548725637,-0.5907046476761619,1120.14652014652,97.03372261803234,31.506168161478126,
1770984787024.4338,8.891304347826086,-4.532608695652174,0.43478260869565216,7.794135248354278,-7.743865948533812,-2.288450029922202,4036.6300366300366,1828.5714285714284,1.0,4.735102296077907,211.188679245283,-22.061068702290076,83.20610687022901,-34.79389312977099,-1.0059970014992503,-0.09295352323838081,-0.6011994002998501,1051.2820512820513,97.0365709301783,31.506168161478126,
1770984787043.965,8.097826086956522,-4.663043478260869,0.8913043478260869,6.707360861759425,-8.014362657091562,-1.5296229802513464,4061.5384615384614,1849.084249084249,1.0,4.735102296077907,211.188679245283,-8.229007633587786,72.47328244274809,-52.10687022900763,-0.9985007496251874,-0.09745127436281859,-0.6026986506746627,996.3369963369963,97.03372261803234,31.506168161478126,
1770984787063.496,7.619565217391304,-4.510869565217392,1.25,6.020347097546379,-7.923399162178336,-1.2040694195092758,4060.07326007326,1860.8058608058607,1.0,4.740207527663974,210.96122778675283,18.229007633587784,54.6412213740458,-61.175572519083964,-1.0059970014992503,-0.09295352323838081,-0.6101949025487257,979.4871794871794,97.03372261803234,31.506168161478126,
1770984787083.027,7.206521739130435,-3.6304347826086953,1.358695652173913,5.563135846798324,-7.042489527229204,-1.0484739676840216,4060.07326007326,1863.7362637362637,1.0,4.745312759250041,210.73426573426573,39.95419847328244,43.43511450381679,-64.53435114503816,-1.0029985007496252,-0.09745127436281859,-0.6131934032983508,1034.4322344322343,97.03372261803234,31.506168161478126,
1770984787102.5583,7.1521739130434785,-2.652173913043478,1.5543478260869565,5.450628366247756,-5.898264512268103,-0.9646918013165768,4060.07326007326,1864.4688644688642,1.0,4.750417990836109,210.5077915099409,47.74045801526717,35.26717557251908,-63.14503816793893,-1.0074962518740629,-0.12143928035982009,-0.6221889055472264,1153.8461538461538,97.0365709301783,31.506168161478126,
1770984787122.0894,8.728260869565217,-1.9782608695652173,1.8152173913043477,6.604428485936565,-5.014961101137043,-0.6941950927588271,4055.6776556776554,1851.2820512820513,1.0,4.750417990836109,210.5077915099409,30.13740458015267,35.282442748091604,-53.74045801526717,-1.0059970014992503,-0.10344827586206896,-0.6281859070464767,1321.6117216117216,97.02517769839017,31.506168161478126,
1770984787141.6204,7.967391304347826,-2.641304347826087,2.282608695652174,6.515858767205266,-5.670855774985038,-0.24655894673847994,4058.6080586080584,1855.6776556776556,1.0,4.755523222422177,210.2818035426731,1.6793893129770991,59.2824427480916,-35.862595419847324,-1.010494752623688,-0.12143928035982009,-0.623688155922039,1494.5054945054944,97.03372261803234,31.506168161478126,
1770984787161.1516,9.717391304347826,-3.0978260869565215,1.5652173913043477,8.66786355475763,-6.166367444643925,-0.7372830640335128,4060.07326007326,1862.2710622710622,1.0,4.760628454008245,210.05630026809652,-7.038167938931298,87.83206106870229,-37.31297709923664,-1.0089955022488755,-0.13193403298350825,-0.6416791604197901,1638.095238095238,97.03087430868567,31.506168161478126,
1770984787180.6826,6.239130434782608,-3.2282608695652173,2.2717391304347827,4.2274087372830635,-6.262118491921005,-0.05026929982046679,4035.164835164835,1824.9084249084249,1.0,4.760628454008245,210.05630026809652,-17.770992366412212,71.05343511450381,-29.541984732824428,-1.0089955022488755,-0.12593703148425786,-0.6431784107946027,1717.9487179487178,97.03087430868567,31.506168161478126,
1770984787200.214,7.858695652173913,-2.9891304347826084,2.0652173913043477,6.362657091561939,-6.197486535008976,-0.19150209455415917,4060.07326007326,1853.4798534798533,1.0,4.765733685594314,209.83128012854846,-2.687022900763359,41.14503816793893,-21.251908396946565,-0.9940029985007496,-0.12443778110944527,-0.6386806596701649,1721.6117216117216,97.03087430868567,31.506168161478126,
1770984787219.7449,6.5978260869565215,-1.9239130434782608,2.630434782608696,5.168162776780371,-5.460203470975464,0.3279473369239976,4058.6080586080584,1854.9450549450548,1.0,4.770838917180381,209.6067415730337,13.16030534351145,36.167938931297705,-24.458015267175572,-1.0014992503748126,-0.12593703148425786,-0.6446776611694153,1646.153846153846,97.0365709301783,31.506168161478126,
1770984787239.276,7.489130434782608,-1.6195652173913042,2.108695652173913,5.256732495511669,-4.615200478755236,0.06941950927588271,4057.142857142857,1854.9450549450548,1.0,4.775944148766449,209.38268305718867,-0.3969465648854962,9.572519083969466,-12.274809160305344,-1.0014992503748126,-0.13793103448275862,-0.6596701649175412,1474.7252747252746,97.02517769839017,31.506168161478126,
1770984787258.8071,8.065217391304348,-1.8478260869565217,1.6630434782608696,6.458408138839018,-4.746858168761221,-0.6128067025733094,4058.6080586080584,1854.9450549450548,1.0,4.775944148766449,209.38268305718867,-14.778625954198473,-1.984732824427481,-7.923664122137405,-1.0,-0.1424287856071964,-0.6581709145427286,1218.3150183150183,97.03372261803234,31.506168161478126,
1770984787278.338,8.119565217391305,-1.8152173913043477,1.7717391304347825,6.230999401555954,-4.845002992220227,-0.5816876122082585,4055.6776556776554,1848.3516483516482,1.0,4.781049380352517,209.15910304324612,-20.198473282442748,-3.8625954198473282,2.0610687022900764,-1.010494752623688,-0.12743628185907047,-0.6596701649175412,976.5567765567765,97.03087430868567,31.506168161478126,
1770984787297.8694,8.48913043478261,-1.8804347826086956,1.7608695652173914,6.949132256134051,-4.847396768402154,-0.7372830640335128,4058.6080586080584,1853.4798534798533,1.0,4.786154611938584,208.936,-25.679389312977097,-6.183206106870228,14.793893129770991,-1.0029985007496252,-0.13493253373313344,-0.649175412293853,846.8864468864468,97.03087430868567,31.506168161478126,
1770984787317.4004,8.543478260869565,-2.130434782608696,2.2391304347826084,6.6307600239377615,-5.031717534410532,-0.21543985637342908,4058.6080586080584,1854.9450549450548,1.0,4.786154611938584,208.936,-33.664122137404576,-8.610687022900763,19.69465648854962,-1.0044977511244377,-0.12443778110944527,-0.6431784107946027,829.3040293040292,97.04226756286813,31.506168161478126,
1770984787336.9314,8.66304347826087,-2.5543478260869565,2.0978260869565215,7.368043087971275,-5.500897666068222,-0.17713943746259725,4035.164835164835,1822.7106227106226,1.0,4.791259843524652,208.71337240277037,-38.13740458015267,-12.717557251908396,27.862595419847327,-1.0074962518740629,-0.12143928035982009,-0.6476761619190404,882.7838827838827,97.02802600213828,31.506168161478126,
1770984787356.4626,8.445652173913043,-2.717391304347826,2.0543478260869565,6.836624775583482,-5.8001196888090965,-0.10293237582286056,4058.6080586080584,1846.8864468864467,1.0,4.79636507511072,208.4912187333688,-35.847328244274806,-17.679389312977097,26.580152671755723,-1.010494752623688,-0.1184407796101949,-0.6446776611694153,957.5091575091575,97.03087430868567,31.506168161478126,
1770984787375.9937,8.978260869565217,-2.7717391304347827,1.7608695652173914,7.083183722321963,-5.819269898264512,-0.3375224416517056,4061.5384615384614,1854.212454212454,1.0,4.79636507511072,208.4912187333688,-33.83206106870229,-26.77862595419847,31.66412213740458,-0.9985007496251874,-0.12893553223388304,-0.6446776611694153,1033.6996336996335,97.02802600213828,31.506168161478126,
1770984787395.525,9.17391304347826,-2.934782608695652,1.358695652173913,7.786953919808497,-6.029922202274087,-1.1250748055056852,4058.6080586080584,1854.9450549450548,1.0,4.801470306696787,208.2695374800638,-34.65648854961832,-23.389312977099237,32.99236641221374,-1.0029985007496252,-0.12743628185907047,-0.6386806596701649,1090.10989010989,97.03372261803234,31.506168161478126,
1770984787415.056,9.434782608695652,-3.108695652173913,1.2826086956521738,7.863554757630161,-6.173548773189706,-1.20885697187313,4060.07326007326,1862.2710622710622,1.0,4.806575538282855,208.04832713754647,-33.29770992366412,-20.335877862595417,33.23664122137404,-1.0029985007496252,-0.1169415292353823,-0.6356821589205397,1126.007326007326,97.03372261803234,31.506168161478126,
1770984787434.587,9.293478260869565,-3.4130434782608696,1.467391304347826,7.921005385996409,-6.503889886295632,-0.9646918013165768,4057.142857142857,1856.4102564102564,1.0,4.811680769868923,207.82758620689654,-33.25190839694656,-22.50381679389313,33.908396946564885,-1.0074962518740629,-0.10644677661169415,-0.6386806596701649,1174.3589743589744,97.03087430868567,31.506168161478126,
1770984787454.1182,9.358695652173912,-3.7065217391304346,1.5108695652173914,7.748653500897666,-6.884500299222022,-0.7396768402154399,4060.07326007326,1862.2710622710622,1.0,4.81678600145499,207.6073131955485,-30.076335877862594,-31.114503816793892,29.068702290076335,-1.0014992503748126,-0.11094452773613193,-0.6341829085457271,1243.956043956044,97.03087430868567,31.506168161478126,
1770984787473.6492,9.467391304347826,-3.7717391304347827,1.3804347826086956,7.964093357271095,-7.011370436864153,-0.926391382405745,4060.07326007326,1864.4688644688642,1.0,4.81678600145499,207.6073131955485,-23.053435114503817,-31.740458015267173,23.81679389312977,-1.0044977511244377,-0.0944527736131934,-0.6461769115442278,1317.9487179487178,97.03087430868567,31.506168161478126,
1770984787493.1804,9.58695652173913,-3.619565217391304,1.0869565217391304,8.179533213644524,-6.867743865948533,-1.3046080191502094,4035.164835164835,1824.1758241758241,1.0,4.821891233041058,207.38750661725783,-16.12213740458015,-27.755725190839694,19.557251908396946,-1.0074962518740629,-0.10044977511244378,-0.6341829085457271,1372.161172161172,97.0365709301783,31.506168161478126,
1770984787512.7114,9.782608695652174,-3.5869565217391304,1.1521739130434783,8.24655894673848,-6.771992818671454,-1.2375822860562538,4060.07326007326,1860.07326007326,1.0,4.821891233041058,207.38750661725783,-12.625954198473282,-23.78625954198473,13.419847328244273,-1.0029985007496252,-0.10794602698650674,-0.6356821589205397,1393.4065934065934,97.03087430868567,31.506168161478126,
1770984787532.2424,10.097826086956522,-3.793478260869565,0.9891304347826086,8.768402154398563,-6.987432675044883,-1.429084380610413,4058.6080586080584,1857.142857142857,1.0,4.826996464627126,207.1681649920677,-12.213740458015266,-17.770992366412212,9.129770992366412,-1.0059970014992503,-0.11544227886056971,-0.6401799100449775,1405.8608058608058,97.02517769839017,31.506168161478126,
1770984787551.7737,9.706521739130434,-3.891304347826087,0.9456521739130435,8.289646918013165,-7.150209455415919,-1.4314781567923398,4058.6080586080584,1856.4102564102564,1.0,4.826996464627126,207.1681649920677,-7.587786259541985,-6.870229007633587,2.763358778625954,-1.0029985007496252,-0.08995502248875561,-0.6416791604197901,1422.7106227106226,97.0365709301783,31.506168161478126,
1770984787571.3047,9.17391304347826,-3.6956521739130435,1.0108695652173914,7.751047277079593,-6.970676241771394,-1.438659485338121,4060.07326007326,1862.2710622710622,1.0,4.832101696213194,206.94928684627575,0.32061068702290074,2.213740458015267,-2.213740458015267,-1.0059970014992503,-0.09295352323838081,-0.6341829085457271,1440.2930402930401,97.03372261803234,31.506168161478126,
1770984787590.8357,8.869565217391305,-3.434782608695652,1.1956521739130435,7.329742669060443,-6.635547576301616,-1.2256134051466188,4057.142857142857,1857.142857142857,1.0,4.832101696213194,206.94928684627575,4.244274809160305,5.175572519083969,-7.908396946564885,-1.0074962518740629,-0.09745127436281859,-0.623688155922039,1455.6776556776556,97.03372261803234,31.506168161478126,
1770984787610.367,8.891304347826086,-3.3478260869565215,1.0434782608695652,7.368043087971275,-6.525433871932974,-1.3788150807899462,4058.6080586080584,1856.4102564102564,1.0,4.837206927799262,206.73087071240107,2.351145038167939,1.0381679389312977,-9.740458015267174,-1.0044977511244377,-0.0914542728635682,-0.6266866566716641,1454.9450549450548,97.03372261803234,31.506168161478126,
1770984787629.898,8.445652173913043,-3.3260869565217392,0.9782608695652174,6.8940754039497305,-6.508677438659485,-1.4482345900658289,4058.6080586080584,1856.4102564102564,1.0,4.837206927799262,206.73087071240107,0.9312977099236641,0.6259541984732824,-11.862595419847327,-1.0,-0.10044977511244378,-0.6341829085457271,1446.8864468864467,97.02802600213828,31.506168161478126,
1770984787649.4292,8.152173913043478,-3.152173913043478,1.0543478260869565,6.652304009575104,-6.408138839018552,-1.3788150807899462,4035.164835164835,1822.7106227106226,1.0,4.84231215938533,206.5129151291513,3.450381679389313,-2.4580152671755724,-11.648854961832061,-1.0029985007496252,-0.08095952023988005,-0.631184407796102,1439.5604395604394,97.03941924512357,31.506168161478126,
1770984787668.9602,7.902173913043478,-2.9565217391304346,1.0,6.367444643925793,-6.173548773189706,-1.40754039497307,4060.07326007326,1852.7472527472526,1.0,4.847417390971398,206.29541864139023,3.9847328244274807,-8.473282442748092,-10.122137404580153,-1.010494752623688,-0.10344827586206896,-0.6341829085457271,1430.7692307692307,97.03087430868567,31.506168161478126,
1770984787688.4912,7.771739130434782,-2.858695652173913,0.9565217391304348,6.197486535008976,-6.0083782166367445,-1.4554159186116098,4060.07326007326,1860.8058608058607,1.0,4.847417390971398,206.29541864139023,1.6335877862595418,-13.267175572519083,-6.748091603053435,-1.0089955022488755,-0.11094452773613193,-0.6266866566716641,1410.2564102564102,97.0365709301783,31.506168161478126,
1770984787708.0225,7.4021739130434785,-2.891304347826087,0.8260869565217391,5.994015559545183,-5.965290245362058,-1.5008976660682225,4058.6080586080584,1857.8754578754576,1.0,4.847417390971398,206.29541864139023,-1.66412213740458,-22.412213740458014,-2.595419847328244,-1.0014992503748126,-0.0944527736131934,-0.6206896551724138,1378.021978021978,97.02802600213828,31.506168161478126,
1770984787727.5537,6.4021739130434785,-2.880434782608696,0.5108695652173912,5.151406343506882,-6.017953321364453,-1.85278276481149,4060.07326007326,1862.2710622710622,1.0,4.857627854143534,205.8617971623752,-4.641221374045801,-43.664122137404576,-1.6335877862595418,-1.010494752623688,-0.09895052473763118,-0.6206896551724138,1349.4505494505493,97.03372261803234,31.506168161478126,
1770984787747.0847,5.956521739130435,-2.782608695652174,0.5217391304347826,4.1316576900059845,-5.934171154997007,-1.874326750448833,4060.07326007326,1863.7362637362637,1.0,4.857627854143534,205.8617971623752,-2.7022900763358777,-93.98473282442748,-5.755725190839694,-1.0044977511244377,-0.09895052473763118,-0.608695652173913,1327.4725274725274,97.032928125992,31.501143143163063,
1770984787766.6155,6.956521739130435,-2.8043478260869565,-0.16304347826086957,4.7061639736684615,-5.883901855176541,-2.333931777378815,4058.6080586080584,1857.8754578754576,1.0,4.862733085729601,205.6456692913386,-6.122137404580153,-154.9618320610687,-11.435114503816793,-1.010494752623688,-0.10044977511244378,-0.5907046476761619,1303.2967032967033,97.032928125992,31.501143143163063,
1770984787786.1467,8.434782608695652,-2.934782608695652,-1.25,6.254937163375224,-6.025134649910234,-3.473369239976062,4060.07326007326,1863.003663003663,1.0,4.862733085729601,205.6456692913386,-14.48854961832061,-192.7175572519084,-17.236641221374047,-1.0044977511244377,-0.07796101949025487,-0.5832083958020989,1275.4578754578754,97.03007983978246,31.501143143163063,
1770984787805.678,9.58695652173913,-3.010869565217391,-1.6956521739130435,7.691202872531418,-6.14721723518851,-4.27049670855775,4035.164835164835,1824.1758241758241,1.0,4.867838317315669,205.42999475616153,-13.725190839694656,-198.50381679389312,-20.80916030534351,-1.0059970014992503,-0.10944527736131934,-0.5427286356821589,1291.5750915750914,97.02723155637214,31.501143143163063,
1770984787825.209,10.076086956521738,-3.2391304347826084,-1.9782608695652173,8.653500897666069,-6.300418910831837,-4.672651107121484,4032.234432234432,1806.5934065934064,1.0,4.872943548901737,205.2147721320063,-8.305343511450381,-170.70229007633588,-19.43511450381679,-1.010494752623688,-0.12143928035982009,-0.5427286356821589,1342.1245421245421,97.032928125992,31.501143143163063,
1770984787844.7402,9.25,-3.619565217391304,-1.7717391304347825,8.088569718731298,-6.79114302812687,-4.600837821663674,4058.6080586080584,1842.4908424908424,1.0,4.878048780487805,205.0,-2.0,-133.75572519083968,-16.946564885496183,-1.0029985007496252,-0.09895052473763118,-0.527736131934033,1377.2893772893772,97.03862470680883,31.501143143163063,
1770984787864.2712,9.097826086956522,-3.532608695652174,-1.5869565217391304,7.499700777977259,-6.81508078994614,-4.383004189108318,4057.142857142857,1851.2820512820513,1.0,4.883154012073872,204.78567694720337,12.885496183206106,-108.19847328244275,-19.48091603053435,-1.0,-0.10194902548725637,-0.5067466266866567,1367.7655677655678,97.03007983978246,31.501143143163063,
1770984787883.8022,9.206521739130434,-3.3804347826086953,-1.5869565217391304,7.7558348294434465,-6.582884500299222,-4.320766008378216,4030.7692307692305,1818.3150183150183,1.0,4.883154012073872,204.78567694720337,17.81679389312977,-90.07633587786259,-21.587786259541986,-0.9970014992503747,-0.0914542728635682,-0.5067466266866567,1333.3333333333333,97.032928125992,31.501143143163063,
1770984787903.3335,8.554347826086957,-3.3152173913043477,-1.5108695652173914,7.147815679233991,-6.506283662477558,-4.189108318372232,4058.6080586080584,1844.6886446886447,1.0,4.893364475246008,204.35837245696402,18.396946564885496,-73.20610687022901,-19.43511450381679,-1.0,-0.10344827586206896,-0.4977511244377811,1305.4945054945053,97.03577641500078,31.501143143163063,
1770984787922.8645,8.065217391304348,-3.282608695652174,-1.6304347826086956,6.424895272292041,-6.458408138839018,-4.268102932375823,4029.304029304029,1810.989010989011,1.0,4.893364475246008,204.35837245696402,17.587786259541986,-60.18320610687023,-17.374045801526716,-1.0059970014992503,-0.0914542728635682,-0.5022488755622189,1281.3186813186812,97.032928125992,31.501143143163063,
1770984787942.3958,8.108695652173912,-3.1304347826086953,-1.8369565217391304,6.5350089766606825,-6.302812687013764,-4.567324955116696,4057.142857142857,1842.4908424908424,1.0,4.898469706832075,204.14538822303285,16.030534351145036,-53.45038167938931,-17.49618320610687,-0.9970014992503747,-0.11544227886056971,-0.48425787106446777,1252.014652014652,97.03577641500078,31.501143143163063,
1770984787961.9268,7.75,-2.9782608695652173,-1.9891304347826086,6.154398563734291,-6.140035906642729,-4.756433273488929,4033.6996336996335,1817.5824175824175,1.0,4.898469706832075,204.14538822303285,14.473282442748092,-52.62595419847328,-17.877862595419845,-1.0059970014992503,-0.12293853073463268,-0.47976011994003,1230.03663003663,97.04147300141611,31.501143143163063,
1770984787981.4578,7.663043478260869,-2.934782608695652,-2.141304347826087,6.029922202274087,-6.063435068821065,-4.976660682226211,4058.6080586080584,1845.4212454212452,1.0,4.908680170004212,203.7207488299532,11.17557251908397,-49.70992366412214,-16.9618320610687,-0.9970014992503747,-0.10344827586206896,-0.48125937031484256,1218.3150183150183,97.03007983978246,31.501143143163063,
1770984788000.989,7.58695652173913,-2.9565217391304346,-2.0760869565217392,5.903052064631956,-6.082585278276481,-4.852184320766009,4058.6080586080584,1853.4798534798533,1.0,4.913785401590279,203.50909090909093,6.3969465648854955,-47.69465648854962,-18.198473282442748,-0.9985007496251874,-0.11544227886056971,-0.472263868065967,1224.1758241758241,97.03007983978246,31.501143143163063,
1770984788020.52,7.489130434782608,-3.0217391304347827,-2.032608695652174,5.833632555356074,-6.118491921005385,-4.7947336923997605,4057.142857142857,1854.212454212454,1.0,4.913785401590279,203.50909090909093,0.8702290076335878,-41.099236641221374,-15.190839694656487,-0.9940029985007496,-0.10944527736131934,-0.46326836581709147,1235.164835164835,97.03577641500078,31.501143143163063,
1770984788040.051,7.3478260869565215,-3.010869565217391,-2.1739130434782608,5.6804308797127465,-6.161579892280072,-4.912028725314183,4058.6080586080584,1855.6776556776556,1.0,4.918890633176347,203.29787234042556,-3.145038167938931,-32.54961832061068,-12.916030534351144,-0.9985007496251874,-0.10194902548725637,-0.4677661169415292,1239.5604395604396,97.03007983978246,31.501143143163063,
1770984788059.5825,7.228260869565217,-3.0217391304347827,-2.0760869565217392,5.563135846798324,-6.142429682824655,-4.864153201675643,4058.6080586080584,1856.4102564102564,1.0,4.929101096348483,202.87674779906786,-4.534351145038168,-25.679389312977097,-9.618320610687023,-0.992503748125937,-0.12293853073463268,-0.4542728635682159,1255.6776556776556,97.032928125992,31.501143143163063,
1770984788079.1133,7.445652173913043,-2.9891304347826084,-2.1847826086956523,5.579892280071813,-6.118491921005385,-4.861759425493716,4058.6080586080584,1855.6776556776556,1.0,4.93420632793455,202.66683911019143,-7.068702290076335,-21.068702290076335,-4.961832061068702,-0.9880059970014993,-0.11394302848575712,-0.45577211394302847,1281.3186813186812,97.03577641500078,31.501143143163063,
1770984788098.6443,7.565217391304348,-2.9565217391304346,-2.3152173913043477,5.874326750448833,-6.082585278276481,-5.029323758228606,4058.6080586080584,1856.4102564102564,1.0,4.939311559520618,202.45736434108528,-8.67175572519084,-17.435114503816795,-1.8473282442748091,-0.992503748125937,-0.1199400299850075,-0.46026986506746626,1301.8315018315018,97.0243832757611,31.501143143163063,
1770984788118.1755,7.456521739130435,-2.9565217391304346,-2.293478260869565,5.807301017354877,-6.02752842609216,-5.117893476959904,4036.6300366300366,1828.5714285714284,1.0,4.949522022692754,202.03971119133575,-8.702290076335878,-14.48854961832061,1.7709923664122136,-0.9955022488755622,-0.10944527736131934,-0.46176911544227883,1293.040293040293,97.032928125992,31.501143143163063,
1770984788137.7063,7.489130434782608,-3.043478260869565,-2.152173913043478,5.735487731897067,-6.154398563734291,-4.979054458408139,4060.07326007326,1854.9450549450548,1.0,4.9546272542788214,201.8315301391036,-9.374045801526718,-12.091603053435113,3.0534351145038165,-0.9955022488755622,-0.10944527736131934,-0.45577211394302847,1273.260073260073,97.03007983978246,31.501143143163063,
1770984788157.2378,7.804347826086956,-3.010869565217391,-2.141304347826087,6.029922202274087,-6.161579892280072,-4.91442250149611,4060.07326007326,1861.5384615384614,1.0,4.959732485864889,201.62377766340714,-8.366412213740457,-8.48854961832061,5.068702290076335,-0.9895052473763118,-0.11544227886056971,-0.4512743628185907,1241.7582417582416,97.03007983978246,31.501143143163063,
1770984788176.7688,8.021739130434783,-2.9782608695652173,-2.0543478260869565,6.357869539198084,-6.0562537402752845,-4.85936564931179,4058.6080586080584,1857.142857142857,1.0,4.9648377174509575,201.4164524421594,-7.206106870229007,0.16793893129770993,4.763358778625954,-0.9880059970014993,-0.08995502248875561,-0.45577211394302847,1203.6630036630036,97.032928125992,31.501143143163063,
1770984788196.3,8.065217391304348,-3.0652173913043477,-2.010869565217391,6.412926391382405,-6.192698982645123,-4.782764811490126,4032.234432234432,1815.3846153846152,1.0,4.975048180623093,201.0030785017958,-5.7251908396946565,26.244274809160306,6.427480916030534,-0.9910044977511244,-0.1199400299850075,-0.4587706146926537,1171.4285714285713,97.03007983978246,31.501143143163063,
1770984788215.831,8.25,-3.0760869565217392,-2.0760869565217392,6.554159186116098,-6.235786953919808,-4.785158587672052,4061.5384615384614,1845.4212454212452,1.0,4.980153412209161,200.79702716555616,-4.6106870229007635,44.48854961832061,7.572519083969465,-0.9910044977511244,-0.1169415292353823,-0.46476761619190404,1153.8461538461538,97.03007983978246,31.501143143163063,
1770984788235.362,8.326086956521738,-3.0978260869565215,-2.032608695652174,6.731298623578695,-6.235786953919808,-4.823459006582884,4058.6080586080584,1852.7472527472526,1.0,4.985258643795229,200.5913978494624,-2.763358778625954,62.396946564885496,9.740458015267174,-0.9955022488755622,-0.12293853073463268,-0.472263868065967,1143.5897435897434,97.03007983978246,31.501143143163063,
1770984788254.8933,8.402173913043478,-3.1304347826086953,-2.032608695652174,6.752842609216038,-6.25014961101137,-4.797127468581688,4060.07326007326,1861.5384615384614,1.0,4.995469106967365,200.18140010219727,-2.259541984732824,81.61832061068702,13.725190839694656,-1.0059970014992503,-0.10794602698650674,-0.46476761619190404,1134.7985347985348,97.03007983978246,31.501143143163063,
1770984788274.4243,8.967391304347826,-3.1630434782608696,-1.9891304347826086,7.162178336325553,-6.326750448833034,-4.725314183123878,4036.6300366300366,1830.03663003663,1.0,5.0056795701395,199.77307496175425,-4.351145038167939,113.06870229007633,17.404580152671755,-1.0014992503748126,-0.10494752623688156,-0.4677661169415292,1136.9963369963368,97.032928125992,31.501143143163063,
1770984788293.9556,10.08695652173913,-3.2391304347826084,-1.9239130434782608,8.320766008378216,-6.355475763016158,-4.785158587672052,4060.07326007326,1854.9450549450548,1.0,5.015890033311637,199.36641221374043,-8.045801526717558,155.7709923664122,24.80916030534351,-1.0029985007496252,-0.10494752623688156,-0.4962518740629685,1152.3809523809523,97.03007983978246,31.501143143163063,
1770984788313.4866,11.478260869565217,-3.4456521739130435,-1.8695652173913042,9.91741472172352,-6.54458408138839,-4.718132854578097,4060.07326007326,1862.2710622710622,1.0,5.020995264897705,199.16370106761562,-15.81679389312977,203.66412213740458,34.18320610687023,-1.0074962518740629,-0.10644677661169415,-0.5082458770614693,1205.8608058608058,97.03577641500078,31.501143143163063,
1770984788333.0176,11.358695652173912,-3.9565217391304346,-2.043478260869565,10.065828845002992,-7.166965888689408,-4.742070616397367,4058.6080586080584,1857.8754578754576,1.0,5.036310959655908,198.55803345159651,-18.290076335877863,236.793893129771,33.52671755725191,-0.9985007496251874,-0.10344827586206896,-0.5292353823088456,1310.6227106227104,97.02723155637214,31.501143143163063,
1770984788352.5488,10.630434782608695,-4.0978260869565215,-2.1630434782608696,9.546379413524836,-7.358467983243567,-4.878515858767205,4060.07326007326,1863.003663003663,1.0,5.041416191241976,198.35696202531642,-9.282442748091603,248.99236641221373,24.015267175572518,-1.0119940029985006,-0.10194902548725637,-0.5622188905547226,1443.2234432234432,97.03007983978246,31.501143143163063,
1770984788372.0798,9.67391304347826,-4.08695652173913,-1.5,8.490724117295033,-7.38719329742669,-4.119688809096349,4060.07326007326,1864.4688644688642,1.0,5.051626654414111,197.95603840323392,-10.610687022900763,248.793893129771,5.6183206106870225,-1.0134932533733134,-0.10644677661169415,-0.5817091454272864,1571.4285714285713,97.03007983978246,31.501143143163063,
1770984788391.611,8.391304347826086,-4.119565217391305,-0.3695652173913043,7.008976660682226,-7.399162178336326,-3.018551765409934,4058.6080586080584,1858.6080586080584,1.0,5.061837117586247,197.55673222390317,-4.824427480916031,218.85496183206106,-17.740458015267176,-1.0119940029985006,-0.10194902548725637,-0.6026986506746627,1632.2344322344322,97.03577641500078,31.501143143163063,
1770984788411.142,8.152173913043478,-3.9891304347826084,0.6847826086956521,6.551765409934171,-7.262716935966487,-1.850388988629563,4058.6080586080584,1856.4102564102564,1.0,5.072047580758383,197.1590337191746,1.4198473282442747,174.74809160305344,-34.83969465648855,-1.0074962518740629,-0.09745127436281859,-0.6251874062968515,1565.5677655677655,97.02723155637214,31.501143143163063,
1770984788430.673,7.739130434782608,-3.9891304347826084,1.2282608695652173,6.2238180730101735,-7.207660083782166,-1.165769000598444,4035.164835164835,1822.7106227106226,1.0,5.082258043930518,196.76293319939728,12.931297709923664,134.90076335877862,-46.595419847328245,-0.9985007496251874,-0.09745127436281859,-0.6536731634182908,1387.5457875457876,97.03577641500078,31.501143143163063,
1770984788450.2043,6.9021739130434785,-3.641304347826087,1.8804347826086956,5.26391382405745,-6.906044284859365,-0.36624775583482944,4060.07326007326,1852.7472527472526,1.0,5.092468507102654,196.36842105263156,33.770992366412216,90.1526717557252,-57.541984732824424,-1.0059970014992503,-0.11244377811094453,-0.6596701649175412,1161.904761904762,97.03007983978246,31.501143143163063,
1770984788469.7354,7.184782608695652,-2.858695652173913,2.2065217391304346,5.436265709156194,-6.017953321364453,0.033512866546977854,4060.07326007326,1860.8058608058607,1.0,5.107784201860857,195.77961019490255,50.01526717557252,51.00763358778626,-58.82442748091603,-1.0014992503748126,-0.12143928035982009,-0.6626686656671664,978.7545787545787,97.03577641500078,31.501143143163063,
1770984788489.2664,7.891304347826087,-2.3260869565217392,2.369565217391304,5.917414721723519,-5.651705565529623,0.2537402752842609,4058.6080586080584,1857.142857142857,1.0,5.117994665032993,195.38902743142143,55.11450381679389,30.442748091603054,-51.51145038167939,-0.9985007496251874,-0.13793103448275862,-0.6686656671664167,895.2380952380952,97.032928125992,31.501143143163063,
1770984788508.7976,7.967391304347826,-1.9782608695652173,2.5543478260869565,6.257330939557152,-5.132256134051466,0.22740873728306402,4060.07326007326,1856.4102564102564,1.0,5.138415591377265,194.61251862891206,49.14503816793893,19.236641221374047,-48.07633587786259,-1.0044977511244377,-0.13193403298350825,-0.6671664167916042,902.5641025641025,97.03577641500078,31.501143143163063,
1770984788528.3286,8.141304347826086,-2.032608695652174,2.7717391304347827,6.666666666666666,-5.012567324955117,0.24895272292040693,4058.6080586080584,1855.6776556776556,1.0,5.153731286135468,194.03417533432392,37.64885496183206,19.63358778625954,-37.46564885496183,-0.9955022488755622,-0.12593703148425786,-0.6731634182908546,963.3699633699633,97.04147300141611,31.501143143163063,
1770984788547.86,8.92391304347826,-2.25,3.608695652173913,6.530221424296828,-5.19210053859964,0.8545780969479353,4058.6080586080584,1856.4102564102564,1.0,5.163941749307603,193.65051903114187,30.65648854961832,19.801526717557252,-28.97709923664122,-0.9970014992503747,-0.13343328335832083,-0.6701649175412293,1039.5604395604396,97.03577641500078,31.501143143163063,
1770984788567.3909,10.728260869565217,-3.260869565217391,3.3152173913043477,11.348892878515858,-5.4242968282465585,3.066427289048474,4060.07326007326,1862.2710622710622,1.0,5.174152212479739,193.26837691169214,9.374045801526718,95.48091603053435,-4.549618320610687,-0.9985007496251874,-0.12893553223388304,-0.6671664167916042,1110.6227106227107,97.04147300141611,31.501143143163063,
1770984788586.922,6.782608695652174,-3.0217391304347827,2.8260869565217392,3.4566128067025734,-6.281268701376421,0.8019150209455416,4035.164835164835,1824.9084249084249,1.0,5.189467907237941,192.69798327594688,23.236641221374043,17.14503816793893,-38.70229007633588,-1.0,-0.12143928035982009,-0.689655172413793,1179.4871794871794,97.03577641500078,31.501143143163063,
1770984788606.4531,9.26086956521739,-2.293478260869565,2.2391304347826084,7.8444045481747455,-5.783363255535607,-0.05026929982046679,4058.6080586080584,1847.6190476190475,1.0,5.199678370410077,192.31958762886597,29.81679389312977,11.908396946564885,-22.045801526717558,-0.9910044977511244,-0.15742128935532235,-0.6791604197901049,1249.8168498168498,97.02723155637214,31.501143143163063,
1770984788625.984,8.42391304347826,-1.858695652173913,2.467391304347826,7.073608617594255,-4.974266906044285,0.09575104727707959,4058.6080586080584,1853.4798534798533,1.0,5.209888833582213,191.94267515923568,19.404580152671755,16.641221374045802,-26.030534351145036,-1.0,-0.12893553223388304,-0.7031484257871065,1293.7728937728937,97.03577641500078,31.501143143163063,
1770984788645.5154,8.695652173913043,-1.717391304347826,2.75,6.578096947935368,-4.718132854578097,0.5170556552962298,4057.142857142857,1854.212454212454,1.0,5.2252045283404165,191.3800683927699,10.045801526717558,5.206106870229007,-15.17557251908397,-0.9940029985007496,-0.14992503748125938,-0.6911544227886057,1331.135531135531,97.03577641500078,31.501143143163063,
1770984788665.0464,9.92391304347826,-1.891304347826087,2.8478260869565215,8.354278874925194,-4.897666068222621,0.34709754637941354,4058.6080586080584,1855.6776556776556,1.0,5.2354149915125525,191.00682593856655,5.0534351145038165,9.419847328244275,-14.381679389312977,-1.0,-0.1454272863568216,-0.6986506746626686,1351.6483516483515,97.032928125992,31.501143143163063,
1770984788684.5774,9.619565217391305,-1.891304347826087,3.358695652173913,8.323159784560143,-4.967085577498504,0.947935368043088,4057.142857142857,1854.9450549450548,1.0,5.245625454684688,190.63503649635038,6.473282442748092,13.877862595419847,-13.374045801526718,-1.0,-0.1454272863568216,-0.6881559220389805,1363.3699633699632,97.04147300141611,31.501143143163063,
1770984788704.1086,9.456521739130434,-1.858695652173913,3.9456521739130435,7.956912028725314,-4.825852782764811,1.6876122082585279,4058.6080586080584,1855.6776556776556,1.0,5.250730686270756,190.44968400583375,3.0229007633587783,6.259541984732824,-10.351145038167939,-0.9970014992503747,-0.1424287856071964,-0.6836581709145427,1350.18315018315,97.03577641500078,31.501143143163063,
1770984788723.6396,9.576086956521738,-1.9782608695652173,3.9239130434782608,7.983243566726511,-4.991023339317774,1.859964093357271,4058.6080586080584,1855.6776556776556,1.0,5.260941149442892,190.08005822416303,1.282442748091603,-1.1450381679389312,-13.282442748091603,-0.9895052473763118,-0.13193403298350825,-0.6956521739130435,1333.3333333333333,97.03577641500078,31.501143143163063,
1770984788743.171,9.282608695652174,-1.967391304347826,3.7065217391304346,8.100538599640933,-5.055655296229802,1.601436265709156,4035.164835164835,1822.7106227106226,1.0,5.271151612615027,189.71186440677965,4.244274809160305,-1.984732824427481,-13.83206106870229,-0.9865067466266866,-0.15892053973013492,-0.697151424287856,1344.3223443223442,97.0365709301783,31.506168161478126,
1770984788762.702,8.33695652173913,-1.7065217391304348,3.543478260869565,7.023339317773788,-4.78755236385398,1.4889287851585877,4060.07326007326,1852.7472527472526,1.0,5.281362075787163,189.3450942484292,4.381679389312977,-9.190839694656487,-14.65648854961832,-0.992503748125937,-0.15442278860569714,-0.6866566716641679,1358.2417582417581,97.03372261803234,31.506168161478126,
1770984788782.233,7.826086956521739,-1.2934782608695652,3.1956521739130435,6.211849192100538,-4.304009575104728,1.1226810293237581,4060.07326007326,1860.8058608058607,1.0,5.291572538959298,188.9797395079595,-2.7938931297709924,-28.77862595419847,-12.839694656488549,-0.9955022488755622,-0.15442278860569714,-0.6836581709145427,1358.2417582417581,97.0365709301783,31.506168161478126,
1770984788801.7642,8.565217391304348,-1.2391304347826086,2.619565217391304,6.8461998803111905,-4.162776780371035,0.4213046080191502,4057.142857142857,1856.4102564102564,1.0,5.296677770545366,188.7975903614458,-11.450381679389313,-40.87022900763358,-7.923664122137405,-1.0,-0.15142428785607195,-0.6956521739130435,1338.4615384615383,97.0365709301783,31.506168161478126,
1770984788821.2952,9.16304347826087,-1.3804347826086956,2.5,7.533213644524237,-4.306403351286654,0.27767803710353084,4060.07326007326,1862.2710622710622,1.0,5.306888233717502,188.43434343434345,-14.290076335877862,-40.74809160305343,0.15267175572519084,-1.0044977511244377,-0.14992503748125938,-0.6821589205397302,1306.9597069597069,97.0365709301783,31.506168161478126,
1770984788840.8264,9.23913043478261,-1.891304347826087,2.543478260869565,7.765409934171155,-4.878515858767205,0.3925792938360263,4058.6080586080584,1857.8754578754576,1.0,5.317098696889637,188.0724915986558,-3.16030534351145,-35.587786259541986,10.274809160305344,-1.0,-0.15292353823088456,-0.6806596701649176,1287.179487179487,97.0365709301783,31.506168161478126,
1770984788860.3574,8.858695652173912,-1.608695652173913,2.619565217391304,7.3895870736086176,-4.624775583482944,0.3399162178336326,4060.07326007326,1863.003663003663,1.0,5.322203928475705,187.89208633093526,2.564885496183206,-31.923664122137403,11.66412213740458,-0.9970014992503747,-0.15442278860569714,-0.6866566716641679,1287.179487179487,97.03087430868567,31.506168161478126,
1770984788879.8884,8.271739130434783,-1.4130434782608696,2.467391304347826,6.738479952124476,-4.402154398563734,0.13405146618791142,4060.07326007326,1863.7362637362637,1.0,5.327309160061772,187.71202683277434,-7.083969465648854,-33.49618320610687,16.671755725190838,-1.0074962518740629,-0.13193403298350825,-0.6836581709145427,1301.098901098901,97.0365709301783,31.506168161478126,
1770984788899.4197,8.054347826086957,-1.1304347826086956,2.130434782608696,6.496708557749851,-4.086175942549372,-0.22022740873728305,4036.6300366300366,1831.5018315018315,1.0,5.337519623233908,187.3529411764706,-28.641221374045802,-36.74809160305343,21.709923664122137,-1.0014992503748126,-0.16041979010494753,-0.6686656671664167,1318.6813186813185,97.03087430868567,31.506168161478126,
1770984788918.9507,9.554347826086957,-1.7391304347826086,2.0652173913043477,6.731298623578695,-4.160383004189108,-0.01436265709156194,4033.6996336996335,1814.6520146520145,1.0,5.347730086406044,186.99522673031026,-48.80916030534351,-32.0763358778626,24.870229007633586,-1.0044977511244377,-0.136431784107946,-0.6776611694152923,1336.263736263736,97.0365709301783,31.506168161478126,
1770984788938.4817,9.391304347826086,-2.4891304347826084,1.684782608695652,8.746858168761221,-5.326152004787552,-0.7420706163973668,4060.07326007326,1850.5494505494505,1.0,5.352835317992112,186.81688125894135,-40.732824427480914,-13.587786259541984,36.778625954198475,-1.0014992503748126,-0.1409295352323838,-0.6701649175412293,1356.0439560439559,97.0365709301783,31.506168161478126,
1770984788958.013,8.597826086956522,-2.293478260869565,1.9891304347826086,7.308198683423099,-5.579892280071813,-0.34470377019748655,4057.142857142857,1853.4798534798533,1.0,5.3579405495781804,186.63887565507386,-25.404580152671755,-10.229007633587786,36.38167938931298,-1.0089955022488755,-0.11094452773613193,-0.6686656671664167,1404.3956043956043,97.04226756286813,31.506168161478126,
1770984788977.544,7.945652173913043,-2.0760869565217392,1.858695652173913,6.7025733093955715,-5.189706762417714,-0.3375224416517056,4060.07326007326,1862.2710622710622,1.0,5.368151012750316,186.28388017118405,-27.12977099236641,-25.221374045801525,37.11450381679389,-1.0029985007496252,-0.13043478260869565,-0.6626686656671664,1498.168498168498,97.03372261803234,31.506168161478126,
1770984788997.0752,6.804347826086956,-2.119565217391304,1.891304347826087,5.627767803710353,-5.077199281867145,-0.5601436265709157,4061.5384615384614,1859.3406593406592,1.0,5.373256244336384,186.10688836104515,-35.75572519083969,-67.02290076335878,32.13740458015267,-1.0119940029985006,-0.1394302848575712,-0.6596701649175412,1599.2673992673992,97.0365709301783,31.506168161478126,
1770984789016.6062,7.75,-2.5760869565217392,1.6956521739130435,5.280670257330939,-5.419509275882705,-0.23219628964691802,4060.07326007326,1863.003663003663,1.0,5.378361475922451,185.93023255813955,-41.25190839694656,-116.97709923664122,24.35114503816794,-1.010494752623688,-0.13193403298350825,-0.6416791604197901,1654.9450549450548,97.0365709301783,31.506168161478126,
1770984789036.1372,9.434782608695652,-3.141304347826087,0.7826086956521738,7.468581687612208,-6.077797725912627,-1.2830640335128665,4060.07326007326,1864.4688644688642,1.0,5.388571939094586,185.5779251539555,-39.63358778625954,-138.82442748091603,23.099236641221374,-1.0029985007496252,-0.11244377811094453,-0.6386806596701649,1649.8168498168498,97.03941924512357,31.506168161478126,
1770984789055.6685,9.304347826086957,-3.3043478260869565,0.46739130434782605,8.062238180730102,-6.494314781567923,-1.9509275882704966,4036.6300366300366,1831.5018315018315,1.0,5.393677170680654,185.4022716516801,-21.557251908396946,-140.15267175572518,23.32824427480916,-1.0224887556221889,-0.12293853073463268,-0.6266866566716641,1610.2564102564102,97.02802600213828,31.506168161478126,
1770984789075.1997,9.369565217391305,-3.2065217391304346,0.4891304347826087,7.672052663076002,-6.39377618192699,-1.9485338120885696,4060.07326007326,1855.6776556776556,1.0,5.398782402266722,185.22695035460995,-10.427480916030534,-146.93129770992365,20.213740458015266,-1.014992503748126,-0.1169415292353823,-0.608695652173913,1559.7069597069597,97.0365709301783,31.506168161478126,
1770984789094.7307,10.739130434782608,-3.4239130434782608,0.06521739130434782,8.919210053859963,-6.515858767205266,-2.2621184919210053,4058.6080586080584,1854.9450549450548,1.0,5.408992865438858,184.87730061349694,-16.549618320610687,-143.16030534351145,15.557251908396946,-1.0134932533733134,-0.09745127436281859,-0.5862068965517241,1524.5421245421244,97.03372261803234,31.506168161478126,
1770984789114.2617,11.347826086956522,-3.8478260869565215,-0.15217391304347827,10.039497307001795,-7.018551765409934,-2.606822262118492,4054.212454212454,1853.4798534798533,1.0,5.414098097024925,184.70297029702974,-11.419847328244275,-119.64885496183206,13.48091603053435,-1.0059970014992503,-0.10944527736131934,-0.5787106446776612,1513.5531135531135,97.03372261803234,31.506168161478126,
1770984789133.7927,10.75,-3.902173913043478,-0.20652173913043478,9.6229802513465,-7.226810293237582,-2.755236385397965,4060.07326007326,1861.5384615384614,1.0,5.419203328610993,184.52896844088556,0.13740458015267176,-92.68702290076335,14.442748091603052,-1.0179910044977512,-0.11544227886056971,-0.5667166416791604,1513.5531135531135,97.0365709301783,31.506168161478126,
1770984789153.324,10.228260869565217,-3.717391304347826,-0.20652173913043478,8.897666068222621,-7.030520646319569,-2.6953919808497906,4058.6080586080584,1857.8754578754576,1.0,5.429413791783129,184.18194640338507,6.2748091603053435,-72.50381679389312,9.603053435114504,-1.014992503748126,-0.10944527736131934,-0.5622188905547226,1511.3553113553112,97.0365709301783,31.506168161478126,
1770984789172.855,10.054347826086957,-3.5217391304347827,-0.6739130434782609,8.797127468581687,-6.757630161579892,-3.1932974266906045,4033.6996336996335,1821.9780219780218,1.0,5.429413791783129,184.18194640338507,8.778625954198473,-51.37404580152671,3.8625954198473282,-1.0134932533733134,-0.1184407796101949,-0.5562218890554722,1484.2490842490843,97.03087430868567,31.506168161478126,
1770984789192.3862,9.402173913043478,-3.3478260869565215,-0.7934782608695652,8.019150209455416,-6.575703171753441,-3.3488928785158585,4060.07326007326,1852.7472527472526,1.0,5.439624254955265,183.83622712341625,12.229007633587786,-35.96946564885496,-0.5343511450381679,-1.0164917541229386,-0.10044977511244378,-0.5412293853073463,1443.2234432234432,97.03087430868567,31.506168161478126,
1770984789211.9172,9.195652173913043,-3.119565217391304,-0.8695652173913043,7.774985038898863,-6.319569120287253,-3.466187911430281,4035.164835164835,1821.9780219780218,1.0,5.449834718127402,183.4918032786885,14.290076335877862,-34.88549618320611,-5.6183206106870225,-1.0164917541229386,-0.10644677661169415,-0.5427286356821589,1394.139194139194,97.04511588341195,31.506168161478126,
1770984789231.4482,9.021739130434783,-2.902173913043478,-0.8913043478260869,7.538001196888091,-6.053859964093357,-3.533213644524237,4060.07326007326,1852.0146520146518,1.0,5.460045181299537,183.148667601683,15.557251908396946,-39.160305343511446,-11.038167938931297,-1.0134932533733134,-0.10794602698650674,-0.5397301349325337,1337.7289377289376,97.04226756286813,31.506168161478126,
1770984789250.9795,8.67391304347826,-2.8260869565217392,-0.967391304347826,7.226810293237582,-5.94853381208857,-3.6074207061639734,4058.6080586080584,1854.9450549450548,1.0,5.47536087605774,182.63636363636363,13.083969465648854,-39.9236641221374,-11.419847328244275,-1.010494752623688,-0.1184407796101949,-0.5397301349325337,1246.153846153846,97.04226756286813,31.506168161478126,
1770984789270.5105,8.282608695652174,-2.641304347826087,-1.2173913043478262,6.748055056852184,-5.783363255535607,-3.8635547576301614,4052.7472527472523,1847.6190476190475,1.0,5.485571339229876,182.29641693811072,12.259541984732824,-33.98473282442748,-12.931297709923664,-1.010494752623688,-0.08845577211394302,-0.5322338830584707,1123.076923076923,97.0365709301783,31.506168161478126,
1770984789290.0415,8.043478260869565,-2.4239130434782608,-1.0869565217391304,6.391382405745063,-5.517654099341711,-3.75344105326152,4060.07326007326,1860.07326007326,1.0,5.4906765708159435,182.12691771269175,11.114503816793892,-45.64885496183206,-15.053435114503817,-1.0119940029985006,-0.12293853073463268,-0.5217391304347826,997.069597069597,97.04226756286813,31.506168161478126,
1770984789309.5728,8.597826086956522,-2.5217391304347827,-1.2391304347826086,7.025733093955715,-5.589467384799521,-3.897067624177139,4058.6080586080584,1857.142857142857,1.0,5.4957818024020115,181.9577333952624,6.351145038167939,-53.20610687022901,-14.15267175572519,-1.0179910044977512,-0.10794602698650674,-0.527736131934033,900.3663003663003,97.04226756286813,31.506168161478126,
1770984789329.1038,8.771739130434783,-2.608695652173913,-1.3804347826086956,7.243566726511071,-5.666068222621185,-3.966487133453022,4057.142857142857,1855.6776556776556,1.0,5.4957818024020115,181.9577333952624,6.030534351145038,-49.099236641221374,-11.938931297709923,-1.0119940029985006,-0.11244377811094453,-0.5022488755622189,838.0952380952381,97.0365709301783,31.506168161478126,
1770984789348.635,8.130434782608695,-2.5978260869565215,-1.3369565217391304,6.944344703770198,-5.713943746259725,-4.064631956912029,4058.6080586080584,1855.6776556776556,1.0,5.50088703398808,181.7888631090487,7.465648854961832,-34.94656488549618,-7.32824427480916,-1.0089955022488755,-0.10944527736131934,-0.5097451274362819,792.6739926739926,97.03941924512357,31.506168161478126,
1770984789368.166,7.869565217391304,-2.5760869565217392,-1.3369565217391304,6.257330939557152,-5.649311789347696,-4.026331538001196,4035.164835164835,1822.7106227106226,1.0,5.50088703398808,181.7888631090487,5.877862595419847,-20.0,-4.259541984732825,-1.0059970014992503,-0.10644677661169415,-0.5157421289355322,794.8717948717948,97.0365709301783,31.506168161478126,
1770984789387.697,8.456521739130434,-2.619565217391304,-1.326086956521739,6.434470377019749,-5.701974865350089,-3.925792938360263,4060.07326007326,1852.7472527472526,1.0,5.5059922655741484,181.62030598052849,3.969465648854962,-3.16030534351145,-0.4580152671755725,-1.010494752623688,-0.1199400299850075,-0.5007496251874063,854.2124542124542,97.03941924512357,31.506168161478126,
1770984789407.2285,8.782608695652174,-2.7065217391304346,-1.2173913043478262,7.281867145421903,-5.7522441651705565,-3.973668461998803,4060.07326007326,1861.5384615384614,1.0,5.511097497160216,181.45206113941637,4.351145038167939,12.030534351145038,4.427480916030534,-1.0029985007496252,-0.1169415292353823,-0.505247376311844,923.076923076923,97.0365709301783,31.506168161478126,
1770984789426.7593,7.967391304347826,-2.858695652173913,-1.0434782608695652,6.793536804308797,-5.917414721723519,-3.763016157989228,4054.212454212454,1854.9450549450548,1.0,5.516202728746284,181.28412771864876,5.374045801526718,25.038167938931295,11.648854961832061,-1.0059970014992503,-0.1184407796101949,-0.5172413793103449,978.7545787545787,97.04226756286813,31.506168161478126,
