Shimmer_A679_TimestampSync_Unix_CAL,Shimmer_A679_Accel_LN_X_CAL,Shimmer_A679_Accel_LN_Y_CAL,Shimmer_A679_Accel_LN_Z_CAL,Shimmer_A679_Accel_WR_X_CAL,Shimmer_A679_Accel_WR_Y_CAL,Shimmer_A679_Accel_WR_Z_CAL,Shimmer_A679_Battery_CAL,Shimmer_A679_Ext_Exp_A15_CAL,Shimmer_A679_GSR_Range_CAL,Shimmer_A679_GSR_Skin_Conductance_CAL,Shimmer_A679_GSR_Skin_Resistance_CAL,Shimmer_A679_Gyro_X_CAL,Shimmer_A679_Gyro_Y_CAL,Shimmer_A679_Gyro_Z_CAL,Shimmer_A679_Mag_X_CAL,Shimmer_A679_Mag_Y_CAL,Shimmer_A679_Mag_Z_CAL,Shimmer_A679_PPG_A13_CAL,Shimmer_A679_Pressure_BMP280_CAL,Shimmer_A679_Temperature_BMP280_CAL,Unnamed: 21
1771001185014.9524,-6.1521739130434785,5.304347826086956,3.5217391304347827,-9.122681029323758,3.1310592459605027,1.438659485338121,4035.164835164835,1797.8021978021977,1.0,4.770838917180381,209.6067415730337,1.9389312977099236,-2.183206106870229,-5.175572519083969,-0.29985007496251875,-0.13793103448275862,-0.4077961019490255,1803.6630036630036,96.97353243728413,33.727254750259455,
1771001185034.4844,-6.184782608695652,5.282608695652174,3.402173913043478,-9.103530819868341,3.1143028126870136,1.3668461998803112,4013.1868131868127,1776.5567765567764,1.0,4.770838917180381,209.6067415730337,1.7862595419847327,-0.8854961832061068,-4.900763358778626,-0.29985007496251875,-0.1409295352323838,-0.3988005997001499,1764.102564102564,96.97639057466903,33.727254750259455,
1771001185054.0164,-6.304347826086956,5.282608695652174,3.3804347826086953,-9.22561340514662,3.1214841412327945,1.2974266906044285,4038.0952380952376,1801.4652014652013,1.0,4.765733685594314,209.83128012854846,0.3511450381679389,-0.12213740458015267,-3.9083969465648853,-0.3073463268365817,-0.13493253373313344,-0.4032983508245877,1697.4358974358972,96.970674302718,33.727254750259455,
1771001185073.5483,-6.239130434782608,5.326086956521739,3.391304347826087,-9.242369838420107,3.1502094554159186,1.2854578096947935,4036.6300366300366,1813.9194139194137,1.0,4.765733685594314,209.83128012854846,-1.0534351145038168,-0.47328244274809156,-3.0229007633587783,-0.3073463268365817,-0.12893553223388304,-0.41529235382308843,1612.4542124542124,96.970674302718,33.727254750259455,
1771001185093.0803,-6.228260869565217,5.4021739130434785,3.4239130434782608,-9.149012567324954,3.2483542788749253,1.3309395571514062,4035.164835164835,1810.989010989011,1.0,4.770838917180381,209.6067415730337,-2.213740458015267,0.0916030534351145,-2.1374045801526718,-0.3043478260869565,-0.12443778110944527,-0.4122938530734633,1525.2747252747251,96.97353243728413,33.727254750259455,
1771001185112.6123,-6.195652173913043,5.423913043478261,3.434782608695652,-9.146618791143029,3.286654697785757,1.3381208856971873,4010.25641025641,1772.161172161172,1.0,4.765733685594314,209.83128012854846,-4.106870229007633,1.0687022900763359,-1.3129770992366412,-0.2983508245877061,-0.10794602698650674,-0.41379310344827586,1446.153846153846,96.970674302718,33.727254750259455,
1771001185132.1443,-6.217391304347826,5.434782608695652,3.4239130434782608,-9.170556552962298,3.289048473967684,1.3453022142429683,4036.6300366300366,1805.128205128205,1.0,4.765733685594314,209.83128012854846,-5.572519083969466,2.213740458015267,-0.47328244274809156,-0.29535232383808097,-0.13043478260869565,-0.39730134932533734,1395.6043956043954,96.970674302718,33.727254750259455,
1771001185151.6765,-6.260869565217391,5.391304347826087,3.4239130434782608,-9.204069419509276,3.257929383602633,1.3381208856971873,4036.6300366300366,1815.3846153846152,1.0,4.765733685594314,209.83128012854846,-6.549618320610687,1.282442748091603,0.4427480916030534,-0.2983508245877061,-0.1424287856071964,-0.39430284857571213,1383.150183150183,96.96781617097061,33.727254750259455,
1771001185171.2085,-6.315217391304348,5.521739130434782,3.4891304347826084,-9.283064033512867,3.3991621783363253,1.397965290245362,4036.6300366300366,1818.3150183150183,1.0,4.765733685594314,209.83128012854846,-6.7328244274809155,0.7633587786259541,0.4427480916030534,-0.3058470764617691,-0.1394302848575712,-0.4047976011994003,1391.2087912087911,96.96495804204196,33.727254750259455,
1771001185190.7402,-6.260869565217391,5.456521739130435,3.5652173913043477,-9.251944943147816,3.317773788150808,1.5080789946140036,4014.6520146520143,1777.2893772893772,1.0,4.765733685594314,209.83128012854846,-7.145038167938931,-1.6030534351145038,-0.3511450381679389,-0.30134932533733133,-0.12743628185907047,-0.40929535232383807,1410.989010989011,96.970674302718,33.727254750259455,
1771001185210.2722,-6.206521739130435,5.293478260869565,3.4891304347826084,-9.134649910233392,3.1861160981448235,1.412327947336924,4010.25641025641,1763.3699633699632,1.0,4.765733685594314,209.83128012854846,-7.129770992366412,1.1908396946564885,-1.450381679389313,-0.30134932533733133,-0.1394302848575712,-0.41079460269865065,1433.6996336996335,96.970674302718,33.727254750259455,
1771001185229.8042,-6.163043478260869,5.206521739130435,3.3369565217391304,-9.091561938958707,3.044883303411131,1.2591262716935967,4036.6300366300366,1803.6630036630036,1.0,4.760628454008245,210.05630026809652,-6.473282442748092,1.6335877862595418,-1.2671755725190839,-0.29985007496251875,-0.12743628185907047,-0.3988005997001499,1451.2820512820513,96.970674302718,33.727254750259455,
1771001185249.336,-5.978260869565217,5.239130434782608,3.358695652173913,-9.014961101137043,3.052064631956912,1.2663076002393776,4035.164835164835,1808.058608058608,1.0,4.765733685594314,209.83128012854846,-5.908396946564885,-0.6412213740458015,-1.3129770992366412,-0.29985007496251875,-0.13043478260869565,-0.40929535232383807,1449.8168498168498,96.970674302718,33.727254750259455,
1771001185268.868,-5.83695652173913,5.282608695652174,3.5217391304347827,-8.782764811490125,3.080789946140036,1.3836026331538,4011.721611721611,1772.8937728937728,1.0,4.765733685594314,209.83128012854846,-4.977099236641221,-0.7633587786259541,-1.7099236641221374,-0.2983508245877061,-0.10794602698650674,-0.41529235382308843,1440.2930402930401,96.970674302718,33.727254750259455,
1771001185288.4,-5.8478260869565215,5.358695652173913,3.619565217391304,-8.708557749850389,3.1813285457809695,1.5008976660682225,4029.304029304029,1790.4761904761904,1.0,4.760628454008245,210.05630026809652,-4.778625954198473,1.2366412213740459,-3.145038167938931,-0.3028485757121439,-0.11094452773613193,-0.4122938530734633,1419.7802197802198,96.96495804204196,33.727254750259455,
1771001185307.932,-6.065217391304348,5.358695652173913,3.543478260869565,-8.86654697785757,3.222022740873728,1.5296229802513464,4008.7912087912086,1761.172161172161,1.0,4.765733685594314,209.83128012854846,-5.526717557251908,2.3664122137404577,-4.519083969465648,-0.3073463268365817,-0.11394302848575712,-0.41529235382308843,1401.4652014652013,96.96495804204196,33.727254750259455,
1771001185327.464,-6.206521739130435,5.33695652173913,3.717391304347826,-9.132256134051467,3.1932974266906045,1.5152603231597845,4035.164835164835,1796.3369963369962,1.0,4.765733685594314,209.83128012854846,-6.625954198473282,1.648854961832061,-5.236641221374046,-0.2983508245877061,-0.1169415292353823,-0.4077961019490255,1387.5457875457876,96.970674302718,33.727254750259455,
1771001185346.9958,-6.554347826086956,5.217391304347826,3.5760869565217392,-9.546379413524836,3.023339317773788,1.4913225613405146,4014.6520146520143,1772.161172161172,1.0,4.760628454008245,210.05630026809652,-9.694656488549619,-2.5801526717557253,-3.5572519083969465,-0.2983508245877061,-0.1394302848575712,-0.4077961019490255,1369.9633699633698,96.96781617097061,33.727254750259455,
1771001185366.5278,-6.467391304347826,5.260869565217392,3.467391304347826,-9.421903052064632,3.238779174147217,1.4937163375224416,4010.25641025641,1761.172161172161,1.0,4.760628454008245,210.05630026809652,-6.5038167938931295,5.572519083969466,-7.007633587786259,-0.3028485757121439,-0.12893553223388304,-0.4002998500749625,1363.3699633699632,96.970674302718,33.727254750259455,
1771001185386.0598,-6.456521739130435,5.413043478260869,3.434782608695652,-9.55834829443447,3.0281268701376423,1.371633752244165,4036.6300366300366,1802.9304029304028,1.0,4.765733685594314,209.83128012854846,-6.870229007633587,-1.816793893129771,-4.458015267175572,-0.3043478260869565,-0.12443778110944527,-0.41379310344827586,1360.4395604395604,96.97353243728413,33.727254750259455,
1771001185405.5918,-6.282608695652174,5.326086956521739,3.5217391304347827,-9.278276481149012,3.274685816876122,1.393177737881508,4035.164835164835,1808.058608058608,1.0,4.760628454008245,210.05630026809652,-4.488549618320611,1.8473282442748091,-6.3969465648854955,-0.29685157421289354,-0.11244377811094453,-0.41529235382308843,1347.985347985348,96.970674302718,33.727254750259455,
1771001185425.1238,-6.25,5.510869565217392,3.4565217391304346,-9.189706762417714,3.26032315978456,1.3668461998803112,4010.25641025641,1772.161172161172,1.0,4.760628454008245,210.05630026809652,-3.2061068702290076,4.091603053435114,-3.709923664122137,-0.3028485757121439,-0.10644677661169415,-0.4122938530734633,1339.194139194139,96.970674302718,33.727254750259455,
1771001185444.6558,-6.315217391304348,5.380434782608695,3.434782608695652,-9.2327947336924,3.1837223219628963,1.3429084380610412,4030.7692307692305,1802.9304029304028,1.0,4.760628454008245,210.05630026809652,-3.5725190839694654,0.0916030534351145,-2.8854961832061066,-0.29385307346326833,-0.13193403298350825,-0.40929535232383807,1332.6007326007325,96.970674302718,33.727254750259455,
1771001185464.1875,-6.195652173913043,5.380434782608695,3.369565217391304,-9.08916816277678,3.262716935966487,1.3237582286056253,4007.326007326007,1768.4981684981683,1.0,4.760628454008245,210.05630026809652,-2.717557251908397,2.8091603053435112,-1.5267175572519083,-0.29685157421289354,-0.13793103448275862,-0.41829085457271364,1323.8095238095236,96.96781617097061,33.727254750259455,
1771001185483.7195,-6.195652173913043,5.4021739130434785,3.4456521739130435,-9.2327947336924,3.202872531418312,1.3883901855176541,4035.164835164835,1798.5347985347985,1.0,4.760628454008245,210.05630026809652,-3.801526717557252,0.549618320610687,0.47328244274809156,-0.3058470764617691,-0.11244377811094453,-0.424287856071964,1317.216117216117,96.970674302718,33.727254750259455,
1771001185503.2517,-6.141304347826087,5.358695652173913,3.5,-9.070017953321365,3.229204069419509,1.4482345900658289,4011.721611721611,1771.4285714285713,1.0,4.760628454008245,210.05630026809652,-4.076335877862595,1.3282442748091603,0.3969465648854962,-0.29685157421289354,-0.1394302848575712,-0.39730134932533734,1316.4835164835165,96.96495804204196,33.727254750259455,
1771001185522.7837,-6.206521739130435,5.271739130434782,3.4891304347826084,-9.108318372232196,3.1095152603231595,1.436265709156194,4008.7912087912086,1755.311355311355,1.0,4.760628454008245,210.05630026809652,-3.6488549618320607,2.33587786259542,0.41221374045801523,-0.3043478260869565,-0.12143928035982009,-0.4122938530734633,1315.018315018315,96.970674302718,33.727254750259455,
1771001185542.3157,-6.010869565217392,5.163043478260869,3.4891304347826084,-8.947935368043089,2.994614003590664,1.4482345900658289,4035.164835164835,1794.8717948717947,1.0,4.760628454008245,210.05630026809652,-5.7251908396946565,-1.0687022900763359,0.41221374045801523,-0.3043478260869565,-0.12743628185907047,-0.4002998500749625,1307.6923076923076,96.970674302718,33.727254750259455,
1771001185561.8477,-5.978260869565217,5.1521739130434785,3.4891304347826084,-8.878515858767205,3.023339317773788,1.4602034709754637,4035.164835164835,1805.8608058608058,1.0,4.760628454008245,210.05630026809652,-4.152671755725191,1.4809160305343512,1.1755725190839694,-0.3043478260869565,-0.13043478260869565,-0.4032983508245877,1298.9010989010987,96.970674302718,33.727254750259455,
1771001185581.3796,-6.163043478260869,5.173913043478261,3.5217391304347827,-9.058049072411729,2.970676241771394,1.4338719329742668,4008.7912087912086,1764.8351648351647,1.0,4.760628454008245,210.05630026809652,-4.137404580152672,3.3740458015267176,1.5725190839694656,-0.3028485757121439,-0.10794602698650674,-0.4122938530734633,1293.7728937728937,96.97639057466903,33.727254750259455,
1771001185600.9116,-6.108695652173913,5.271739130434782,3.402173913043478,-8.995810891681627,3.1119090365050868,1.4602034709754637,4030.7692307692305,1794.8717948717947,1.0,4.760628454008245,210.05630026809652,-6.519083969465648,-2.8244274809160306,-0.5038167938931297,-0.29685157421289354,-0.11094452773613193,-0.41379310344827586,1293.7728937728937,96.97559829386962,33.72222960330546,
1771001185620.4436,-5.923913043478261,5.260869565217392,3.6304347826086953,-8.837821663674447,3.116696588868941,1.5080789946140036,4005.8608058608056,1759.7069597069597,1.0,4.755523222422177,210.2818035426731,-6.824427480916031,-2.229007633587786,-2.778625954198473,-0.2983508245877061,-0.13493253373313344,-0.41379310344827586,1311.3553113553112,96.96988206822041,33.72222960330546,
1771001185639.9756,-6.130434782608695,5.217391304347826,3.6739130434782608,-9.055655296229803,3.01376421304608,1.666068222621185,4033.6996336996335,1794.8717948717947,1.0,4.755523222422177,210.2818035426731,-7.114503816793893,-5.083969465648854,-2.946564885496183,-0.29685157421289354,-0.1169415292353823,-0.40929535232383807,1360.4395604395604,96.96702395962389,33.72222960330546,
1771001185659.507,-6.195652173913043,5.25,3.7065217391304346,-9.093955715140634,3.087971274685817,1.646918013165769,4011.721611721611,1769.230769230769,1.0,4.755523222422177,210.2818035426731,-5.694656488549618,-3.66412213740458,-4.259541984732825,-0.3028485757121439,-0.1424287856071964,-0.416791604197901,1452.014652014652,96.96988206822041,33.72222960330546,
1771001185679.0393,-6.130434782608695,5.228260869565217,3.6956521739130435,-9.084380610412927,3.047277079593058,1.6612806702573308,4008.7912087912086,1754.5787545787546,1.0,4.760628454008245,210.05630026809652,-4.290076335877862,-4.870229007633587,-5.770992366412213,-0.30134932533733133,-0.136431784107946,-0.416791604197901,1572.8937728937728,96.96702395962389,33.72222960330546,
1771001185698.5713,-6.163043478260869,5.184782608695652,3.7282608695652173,-9.079593058049072,3.06163973668462,1.7043686415320167,4035.164835164835,1794.139194139194,1.0,4.755523222422177,210.2818035426731,-2.3664122137404577,-4.244274809160305,-6.442748091603053,-0.3058470764617691,-0.12743628185907047,-0.40629685157421286,1682.051282051282,96.96988206822041,33.72222960330546,
1771001185718.1033,-6.163043478260869,5.141304347826087,3.6304347826086953,-9.091561938958707,2.9922202274087373,1.63016157989228,4033.6996336996335,1805.128205128205,1.0,4.755523222422177,210.2818035426731,-0.5954198473282443,-2.900763358778626,-7.083969465648854,-0.2983508245877061,-0.12893553223388304,-0.41079460269865065,1735.5311355311353,96.96988206822041,33.72222960330546,
1771001185737.6353,-6.217391304347826,5.1521739130434785,3.532608695652174,-9.13704368641532,2.98982645122681,1.4913225613405146,4010.25641025641,1771.4285714285713,1.0,4.755523222422177,210.2818035426731,0.366412213740458,-2.1526717557251906,-6.748091603053435,-0.3028485757121439,-0.12443778110944527,-0.41529235382308843,1720.8791208791208,96.96988206822041,33.72222960330546,
1771001185757.1672,-6.228260869565217,5.228260869565217,3.510869565217391,-9.170556552962298,3.035308198683423,1.426690604428486,4032.234432234432,1791.2087912087911,1.0,4.755523222422177,210.2818035426731,0.15267175572519084,-3.068702290076336,-5.9541984732824424,-0.30134932533733133,-0.13193403298350825,-0.43478260869565216,1664.4688644688645,96.96988206822041,33.72222960330546,
1771001185776.6992,-6.3478260869565215,5.228260869565217,3.5652173913043477,-9.290245362058647,3.080789946140036,1.4937163375224416,4036.6300366300366,1810.2564102564102,1.0,4.755523222422177,210.2818035426731,-0.5038167938931297,-1.3893129770992365,-5.435114503816794,-0.29685157421289354,-0.1454272863568216,-0.4032983508245877,1589.0109890109889,96.97274017963568,33.72222960330546,
1771001185796.2312,-6.380434782608695,5.206521739130435,3.510869565217391,-9.340514661879114,3.0712148414123277,1.4793536804308798,4036.6300366300366,1816.117216117216,1.0,4.755523222422177,210.2818035426731,-2.16793893129771,-0.9007633587786259,-5.6183206106870225,-0.29535232383808097,-0.1394302848575712,-0.4212893553223388,1511.3553113553112,96.97274017963568,33.72222960330546,
1771001185815.7632,-6.4021739130434785,5.217391304347826,3.4782608695652173,-9.388390185517654,3.032914422501496,1.4219030520646319,4013.1868131868127,1781.6849816849815,1.0,4.755523222422177,210.2818035426731,-3.633587786259542,-1.6030534351145038,-5.2824427480916025,-0.3043478260869565,-0.14392803598200898,-0.41079460269865065,1434.4322344322343,96.97274017963568,33.72222960330546,
1771001185835.2952,-6.489130434782608,5.184782608695652,3.5,-9.450628366247756,3.011370436864153,1.4410532615200478,4008.7912087912086,1758.2417582417581,1.0,4.755523222422177,210.2818035426731,-4.0,-1.7709923664122136,-4.442748091603053,-0.30134932533733133,-0.13343328335832083,-0.42278860569715143,1368.4981684981683,96.97274017963568,33.72222960330546,
1771001185854.8271,-6.478260869565217,5.206521739130435,3.467391304347826,-9.481747456612807,3.040095751047277,1.393177737881508,4038.0952380952376,1796.3369963369962,1.0,4.755523222422177,210.2818035426731,-4.183206106870228,-0.549618320610687,-4.396946564885496,-0.3058470764617691,-0.12593703148425786,-0.4197901049475262,1330.4029304029302,96.96988206822041,33.72222960330546,
1771001185874.3591,-6.423913043478261,5.206521739130435,3.4239130434782608,-9.438659485338121,3.0281268701376423,1.3692399760622382,4036.6300366300366,1811.7216117216117,1.0,4.755523222422177,210.2818035426731,-4.0,-1.114503816793893,-4.061068702290076,-0.3028485757121439,-0.12293853073463268,-0.4032983508245877,1321.6117216117216,96.97559829386962,33.72222960330546,
1771001185893.891,-6.33695652173913,5.228260869565217,3.4239130434782608,-9.275882704967085,3.0592459605026927,1.390783961699581,4036.6300366300366,1816.8498168498168,1.0,4.755523222422177,210.2818035426731,-3.2213740458015265,1.2061068702290076,-2.8854961832061066,-0.29535232383808097,-0.10644677661169415,-0.41829085457271364,1330.4029304029302,96.96988206822041,33.72222960330546,
1771001185913.423,-6.271739130434782,5.184782608695652,3.4456521739130435,-9.273488928785158,3.001795332136445,1.3764213046080191,4036.6300366300366,1818.3150183150183,1.0,4.755523222422177,210.2818035426731,-3.2519083969465647,0.9465648854961831,-2.8854961832061066,-0.3043478260869565,-0.13193403298350825,-0.40629685157421286,1353.113553113553,96.96702395962389,33.72222960330546,
1771001185932.955,-6.217391304347826,5.130434782608695,3.4891304347826084,-9.149012567324954,2.9922202274087373,1.3788150807899462,4036.6300366300366,1818.3150183150183,1.0,4.750417990836109,210.5077915099409,-2.5343511450381677,2.2900763358778624,-3.068702290076336,-0.3028485757121439,-0.1394302848575712,-0.4077961019490255,1389.7435897435896,96.96988206822041,33.72222960330546,
1771001185952.487,-6.1521739130434785,5.0978260869565215,3.5543478260869565,-9.117893476959903,2.9204069419509273,1.4458408138839018,4036.6300366300366,1819.047619047619,1.0,4.755523222422177,210.2818035426731,-2.7022900763358777,1.6030534351145038,-2.5801526717557253,-0.3043478260869565,-0.11094452773613193,-0.4047976011994003,1414.6520146520145,96.96416585384604,33.72222960330546,
1771001185972.019,-6.065217391304348,5.043478260869565,3.5978260869565215,-9.000598444045481,2.853381208856972,1.5200478755236384,4011.721611721611,1776.5567765567764,1.0,4.755523222422177,210.2818035426731,-3.6488549618320607,1.9236641221374045,-2.717557251908397,-0.29685157421289354,-0.11544227886056971,-0.41379310344827586,1423.4432234432234,96.96988206822041,33.72222960330546,
1771001185991.551,-6.076086956521739,5.010869565217392,3.652173913043478,-9.002992220227409,2.827049670855775,1.5966487133453022,4008.7912087912086,1756.7765567765566,1.0,4.750417990836109,210.5077915099409,-4.015267175572519,1.8625954198473282,-2.6259541984732824,-0.2983508245877061,-0.12593703148425786,-0.41829085457271364,1410.989010989011,96.96988206822041,33.72222960330546,
1771001186011.083,-6.141304347826087,4.945652173913043,3.7065217391304346,-9.127468581687612,2.7576301615798924,1.65409934171155,4035.164835164835,1795.6043956043954,1.0,4.750417990836109,210.5077915099409,-4.793893129770992,0.9007633587786259,-2.717557251908397,-0.29535232383808097,-0.12593703148425786,-0.41829085457271364,1387.5457875457876,96.96988206822041,33.72222960330546,
1771001186030.615,-6.217391304347826,4.945652173913043,3.717391304347826,-9.134649910233392,2.779174147217235,1.634949132256134,4035.164835164835,1805.128205128205,1.0,4.750417990836109,210.5077915099409,-4.137404580152672,-0.061068702290076333,-4.1679389312977095,-0.2983508245877061,-0.12143928035982009,-0.40629685157421286,1365.5677655677655,96.96988206822041,33.72222960330546,
1771001186050.147,-6.173913043478261,4.956521739130435,3.760869565217391,-9.16098144823459,2.7456612806702574,1.7043686415320167,4008.7912087912086,1765.5677655677655,1.0,4.750417990836109,210.5077915099409,-4.748091603053435,-2.5038167938931295,-5.267175572519084,-0.2893553223388306,-0.09745127436281859,-0.4287856071964018,1345.054945054945,96.97274017963568,33.72222960330546,
1771001186069.679,-6.413043478260869,4.9021739130434785,3.8043478260869565,-9.412327947336923,2.6762417713943747,1.7690005984440453,4032.234432234432,1790.4761904761904,1.0,4.750417990836109,210.5077915099409,-4.152671755725191,1.3587786259541985,-5.648854961832061,-0.2983508245877061,-0.12893553223388304,-0.4212893553223388,1327.4725274725274,96.97274017963568,33.72222960330546,
1771001186089.2107,-6.391304347826087,4.923913043478261,3.6739130434782608,-9.330939557151407,2.7456612806702574,1.620586475164572,4007.326007326007,1765.5677655677655,1.0,4.750417990836109,210.5077915099409,-3.0534351145038165,0.5954198473282443,-7.114503816793893,-0.2983508245877061,-0.11244377811094453,-0.424287856071964,1317.216117216117,96.96702395962389,33.72222960330546,
1771001186108.743,-6.380434782608695,4.945652173913043,3.5543478260869565,-9.453022142429683,2.7336923997606224,1.5703171753441052,4035.164835164835,1797.8021978021977,1.0,4.750417990836109,210.5077915099409,-2.6717557251908395,-2.198473282442748,-6.900763358778626,-0.29235382308845576,-0.11094452773613193,-0.41529235382308843,1315.7509157509157,96.96130775088692,33.72222960330546,
1771001186128.275,-6.3478260869565215,5.010869565217392,3.5652173913043477,-9.307001795332136,2.800718132854578,1.4745661280670257,4011.721611721611,1769.9633699633698,1.0,4.750417990836109,210.5077915099409,-1.618320610687023,-1.648854961832061,-7.206106870229007,-0.29235382308845576,-0.12443778110944527,-0.41829085457271364,1322.3443223443223,96.96416585384604,33.72222960330546,
1771001186147.8066,-6.3478260869565215,5.021739130434782,3.543478260869565,-9.323758228605625,2.824655894673848,1.5176540993417116,4035.164835164835,1799.2673992673992,1.0,4.750417990836109,210.5077915099409,-1.1450381679389312,-0.47328244274809156,-6.015267175572519,-0.29535232383808097,-0.1169415292353823,-0.4122938530734633,1310.6227106227104,96.96988206822041,33.72222960330546,
1771001186167.3386,-6.369565217391304,5.043478260869565,3.543478260869565,-9.371633752244165,2.8557749850388987,1.4937163375224416,4035.164835164835,1806.5934065934064,1.0,4.750417990836109,210.5077915099409,-0.41221374045801523,1.4351145038167938,-4.396946564885496,-0.2908545727136432,-0.12293853073463268,-0.41079460269865065,1288.6446886446886,96.97559829386962,33.72222960330546,
1771001186186.8706,-6.3478260869565215,5.08695652173913,3.652173913043478,-9.347695990424896,2.865350089766607,1.4913225613405146,4033.6996336996335,1808.058608058608,1.0,4.750417990836109,210.5077915099409,-1.114503816793893,1.66412213740458,-3.6946564885496183,-0.29985007496251875,-0.1184407796101949,-0.4212893553223388,1270.3296703296703,96.96988206822041,33.72222960330546,
1771001186206.4026,-6.326086956521739,5.054347826086956,3.6739130434782608,-9.273488928785158,2.884500299222023,1.6086175942549372,4035.164835164835,1809.5238095238094,1.0,4.750417990836109,210.5077915099409,-1.1603053435114503,1.816793893129771,-2.931297709923664,-0.29385307346326833,-0.12893553223388304,-0.40929535232383807,1259.3406593406592,96.96702395962389,33.72222960330546,
1771001186225.9346,-6.358695652173913,5.032608695652174,3.6630434782608696,-9.321364452423698,2.8438061041292637,1.658886894075404,4032.234432234432,1802.197802197802,1.0,4.750417990836109,210.5077915099409,-1.3435114503816794,1.4809160305343512,-2.030534351145038,-0.29385307346326833,-0.11094452773613193,-0.42278860569715143,1254.212454212454,96.96988206822041,33.72222960330546,
1771001186245.4666,-6.391304347826087,4.989130434782608,3.608695652173913,-9.354877318970676,2.8509874326750446,1.613405146618791,4035.164835164835,1808.058608058608,1.0,4.750417990836109,210.5077915099409,-0.7938931297709924,0.7022900763358778,-1.0381679389312977,-0.29685157421289354,-0.11094452773613193,-0.4122938530734633,1238.8278388278388,96.96988206822041,33.72222960330546,
1771001186264.9983,-6.4021739130434785,4.989130434782608,3.4782608695652173,-9.381208856971872,2.6953919808497906,1.5703171753441052,4035.164835164835,1809.5238095238094,1.0,4.750417990836109,210.5077915099409,-1.6335877862595418,0.732824427480916,0.030534351145038167,-0.29685157421289354,-0.11544227886056971,-0.43178410794602695,1234.4322344322343,96.96988206822041,33.72222960330546,
1771001186284.5305,-6.304347826086956,4.880434782608695,3.5652173913043477,-9.259126271693596,2.6738479952124474,1.5320167564332734,4011.721611721611,1773.6263736263736,1.0,4.750417990836109,210.5077915099409,-2.015267175572519,0.0916030534351145,0.366412213740458,-0.2893553223388306,-0.13793103448275862,-0.41079460269865065,1232.967032967033,96.96988206822041,33.72222960330546,
1771001186304.0625,-6.271739130434782,4.880434782608695,3.510869565217391,-9.239976062238181,2.637941352483543,1.4578096947935368,4036.6300366300366,1806.5934065934064,1.0,4.745312759250041,210.73426573426573,-1.9236641221374045,0.7938931297709924,0.8244274809160305,-0.29385307346326833,-0.1409295352323838,-0.40929535232383807,1238.8278388278388,96.97274017963568,33.72222960330546,
1771001186323.5945,-6.206521739130435,4.771739130434782,3.5,-9.16816277678037,2.6307600239377615,1.395571514063435,4035.164835164835,1808.7912087912086,1.0,4.750417990836109,210.5077915099409,-1.6793893129770991,0.061068702290076333,0.41221374045801523,-0.2833583208395802,-0.12443778110944527,-0.41829085457271364,1249.084249084249,96.96702395962389,33.72222960330546,
1771001186343.1265,-6.076086956521739,4.9021739130434785,3.467391304347826,-9.038898862956314,2.6618791143028124,1.436265709156194,4035.164835164835,1809.5238095238094,1.0,4.750417990836109,210.5077915099409,-1.9389312977099236,0.4427480916030534,-0.32061068702290074,-0.29535232383808097,-0.12743628185907047,-0.40629685157421286,1263.7362637362637,96.96988206822041,33.72222960330546,
1771001186362.6584,-6.173913043478261,4.934782608695652,3.5543478260869565,-9.043686415320167,2.779174147217235,1.5056852184320766,4008.7912087912086,1766.3003663003662,1.0,4.745312759250041,210.73426573426573,-1.8625954198473282,-0.07633587786259542,-0.7938931297709924,-0.2983508245877061,-0.12743628185907047,-0.4077961019490255,1291.5750915750914,96.96702395962389,33.72222960330546,
1771001186382.1904,-6.25,4.945652173913043,3.6630434782608696,-9.163375224416518,2.783961699581089,1.5727109515260322,4033.6996336996335,1797.069597069597,1.0,4.745312759250041,210.73426573426573,-3.7251908396946565,1.4961832061068703,-0.42748091603053434,-0.29535232383808097,-0.12743628185907047,-0.41079460269865065,1342.8571428571427,96.96702395962389,33.72222960330546,
1771001186401.7224,-6.304347826086956,4.923913043478261,3.7282608695652173,-9.26391382405745,2.7456612806702574,1.65409934171155,4007.326007326007,1767.032967032967,1.0,4.745312759250041,210.73426573426573,-3.877862595419847,1.66412213740458,-1.3129770992366412,-0.2833583208395802,-0.1169415292353823,-0.41529235382308843,1410.2564102564102,96.96988206822041,33.72222960330546,
1771001186421.2544,-6.206521739130435,4.891304347826087,3.6956521739130435,-9.141831238779174,2.6882106523040097,1.6732495511669658,4035.164835164835,1797.8021978021977,1.0,4.745312759250041,210.73426573426573,-3.3587786259541983,-0.3969465648854962,-2.351145038167939,-0.2983508245877061,-0.11244377811094453,-0.40629685157421286,1488.6446886446886,96.97274017963568,33.72222960330546,
1771001186440.7864,-6.043478260869565,4.9021739130434785,3.7282608695652173,-9.019748653500898,2.7121484141232792,1.634949132256134,4011.721611721611,1763.3699633699632,1.0,4.750417990836109,210.5077915099409,-3.114503816793893,-2.259541984732824,-1.7099236641221374,-0.28785607196401797,-0.11544227886056971,-0.4122938530734633,1569.9633699633698,96.96988206822041,33.72222960330546,
1771001186460.3184,-6.119565217391304,4.913043478260869,3.6304347826086953,-9.036505086774387,2.6834230999401556,1.611011370436864,4008.7912087912086,1753.8461538461538,1.0,4.745312759250041,210.73426573426573,-2.9618320610687023,-1.1908396946564885,-2.33587786259542,-0.29385307346326833,-0.13043478260869565,-0.39730134932533734,1616.8498168498168,96.96702395962389,33.72222960330546,
1771001186479.8503,-6.108695652173913,4.978260869565217,3.608695652173913,-9.098743267504489,2.7887492519449433,1.5966487133453022,4038.0952380952376,1795.6043956043954,1.0,4.745312759250041,210.73426573426573,-1.9389312977099236,-2.0610687022900764,-3.679389312977099,-0.28785607196401797,-0.12593703148425786,-0.41379310344827586,1621.245421245421,96.96416585384604,33.72222960330546,
1771001186499.382,-6.315217391304348,4.967391304347826,3.5760869565217392,-9.278276481149012,2.7528426092160383,1.5104727707959305,4035.164835164835,1805.8608058608058,1.0,4.745312759250041,210.73426573426573,-3.618320610687023,-2.564885496183206,-3.66412213740458,-0.29535232383808097,-0.13043478260869565,-0.416791604197901,1591.9413919413919,96.96416585384604,33.72222960330546,
1771001186518.914,-6.369565217391304,4.956521739130435,3.4891304347826084,-9.32854578096948,2.786355475763016,1.4482345900658289,4038.0952380952376,1810.2564102564102,1.0,4.745312759250041,210.73426573426573,-2.610687022900763,-1.282442748091603,-4.748091603053435,-0.2983508245877061,-0.12593703148425786,-0.3958020989505247,1523.0769230769229,96.96988206822041,33.72222960330546,
1771001186538.446,-6.293478260869565,5.021739130434782,3.4891304347826084,-9.316576900059845,2.7887492519449433,1.417115499700778,4036.6300366300366,1816.117216117216,1.0,4.750417990836109,210.5077915099409,-3.6030534351145036,-1.2671755725190839,-4.0,-0.29985007496251875,-0.136431784107946,-0.41529235382308843,1453.4798534798533,96.9784564109223,33.72222960330546,
1771001186557.978,-6.239130434782608,5.08695652173913,3.543478260869565,-9.235188509874327,2.8557749850388987,1.40754039497307,4008.7912087912086,1768.4981684981683,1.0,4.745312759250041,210.73426573426573,-3.5877862595419847,-1.816793893129771,-4.076335877862595,-0.29685157421289354,-0.1199400299850075,-0.4197901049475262,1388.278388278388,96.96130775088692,33.72222960330546,
1771001186577.51,-6.293478260869565,5.08695652173913,3.5978260869565215,-9.16816277678037,2.9156193895870737,1.4649910233393177,4036.6300366300366,1804.3956043956043,1.0,4.745312759250041,210.73426573426573,-3.6946564885496183,-0.6106870229007634,-4.106870229007633,-0.2983508245877061,-0.13343328335832083,-0.41829085457271364,1322.3443223443223,96.96988206822041,33.72222960330546,
1771001186597.042,-6.304347826086956,5.054347826086956,3.5760869565217392,-9.244763614602034,2.9012567324955114,1.4673847995212448,4011.721611721611,1772.161172161172,1.0,4.745312759250041,210.73426573426573,-4.458015267175572,-0.5954198473282443,-3.541984732824427,-0.2983508245877061,-0.13793103448275862,-0.4077961019490255,1273.9926739926739,96.97146653964995,33.73227989750448,
1771001186616.574,-6.358695652173913,5.065217391304348,3.619565217391304,-9.316576900059845,2.9036505086774387,1.5487731897067625,4008.7912087912086,1755.311355311355,1.0,4.745312759250041,210.73426573426573,-3.9083969465648853,-0.6259541984732824,-3.801526717557252,-0.29685157421289354,-0.12593703148425786,-0.3958020989505247,1249.084249084249,96.97146653964995,33.73227989750448,
1771001186636.106,-6.380434782608695,5.065217391304348,3.6304347826086953,-9.340514661879114,2.8797127468581687,1.5679233991621784,4036.6300366300366,1800.7326007326005,1.0,4.745312759250041,210.73426573426573,-3.8625954198473282,-1.5725190839694656,-3.618320610687023,-0.2983508245877061,-0.1199400299850075,-0.4077961019490255,1257.142857142857,96.97432469736702,33.73227989750448,
1771001186655.638,-6.413043478260869,5.065217391304348,3.619565217391304,-9.362058647516458,2.872531418312388,1.5822860562537402,4035.164835164835,1807.3260073260071,1.0,4.740207527663974,210.96122778675283,-2.8244274809160306,-0.7633587786259541,-3.0534351145038165,-0.2908545727136432,-0.12743628185907047,-0.4047976011994003,1277.6556776556777,96.9771828579029,33.73227989750448,
1771001186675.17,-6.413043478260869,5.054347826086956,3.5760869565217392,-9.390783961699581,2.865350089766607,1.5391980849790545,4038.0952380952376,1810.989010989011,1.0,4.745312759250041,210.73426573426573,-1.6793893129770991,-0.10687022900763359,-2.33587786259542,-0.29685157421289354,-0.13043478260869565,-0.4002998500749625,1301.098901098901,96.97146653964995,33.73227989750448,
1771001186694.702,-6.304347826086956,5.043478260869565,3.543478260869565,-9.323758228605625,2.824655894673848,1.5631358467983243,4033.6996336996335,1808.7912087912086,1.0,4.745312759250041,210.73426573426573,-0.916030534351145,0.2748091603053435,-0.7938931297709924,-0.29985007496251875,-0.10944527736131934,-0.41379310344827586,1322.3443223443223,96.97146653964995,33.73227989750448,
1771001186714.234,-6.293478260869565,4.989130434782608,3.5217391304347827,-9.307001795332136,2.841412327947337,1.5152603231597845,4007.326007326007,1770.6959706959706,1.0,4.745312759250041,210.73426573426573,-0.183206106870229,-0.24427480916030533,-0.7022900763358778,-0.29985007496251875,-0.10494752623688156,-0.4212893553223388,1334.7985347985348,96.96860838475166,33.73227989750448,
1771001186733.766,-6.271739130434782,5.021739130434782,3.5,-9.201675643327349,2.872531418312388,1.4458408138839018,4035.164835164835,1799.2673992673992,1.0,4.740207527663974,210.96122778675283,-1.282442748091603,1.3435114503816794,-0.12213740458015267,-0.2908545727136432,-0.10494752623688156,-0.41829085457271364,1329.6703296703297,96.97146653964995,33.73227989750448,
1771001186753.298,-6.326086956521739,5.0,3.5217391304347827,-9.31178934769599,2.810293237582286,1.419509275882705,4010.25641025641,1769.230769230769,1.0,4.745312759250041,210.73426573426573,-1.3893129770992365,3.4198473282442747,0.7786259541984732,-0.29385307346326833,-0.1199400299850075,-0.4122938530734633,1312.8205128205127,96.9771828579029,33.73227989750448,
1771001186772.8298,-6.228260869565217,5.054347826086956,3.467391304347826,-9.204069419509276,2.810293237582286,1.4889287851585877,4008.7912087912086,1754.5787545787546,1.0,4.745312759250041,210.73426573426573,-1.9236641221374045,1.4045801526717556,1.129770992366412,-0.2863568215892054,-0.12743628185907047,-0.41079460269865065,1297.4358974358975,96.97432469736702,33.73227989750448,
1771001186792.3618,-6.33695652173913,5.0,3.5543478260869565,-9.28067025733094,2.803111909036505,1.5224416517055654,4035.164835164835,1794.139194139194,1.0,4.745312759250041,210.73426573426573,-2.16793893129771,0.6259541984732824,1.1755725190839694,-0.29385307346326833,-0.12143928035982009,-0.4017991004497751,1274.7252747252746,96.97146653964995,33.73227989750448,
1771001186811.8938,-6.239130434782608,5.054347826086956,3.532608695652174,-9.163375224416518,2.8821065230400955,1.4602034709754637,4035.164835164835,1805.128205128205,1.0,4.740207527663974,210.96122778675283,-2.5801526717557253,1.9389312977099236,0.7022900763358778,-0.29385307346326833,-0.12593703148425786,-0.4032983508245877,1246.8864468864467,96.96575023267216,33.73227989750448,
1771001186831.4258,-6.260869565217391,5.0,3.510869565217391,-9.242369838420107,2.829443447037702,1.4673847995212448,4036.6300366300366,1815.3846153846152,1.0,4.745312759250041,210.73426573426573,-3.6030534351145036,2.030534351145038,1.2061068702290076,-0.29535232383808097,-0.11244377811094453,-0.4017991004497751,1239.5604395604396,96.97146653964995,33.73227989750448,
1771001186850.9578,-6.217391304347826,5.021739130434782,3.510869565217391,-9.189706762417714,2.836624775583483,1.429084380610413,4033.6996336996335,1810.2564102564102,1.0,4.745312759250041,210.73426573426573,-3.633587786259542,2.8702290076335877,1.0381679389312977,-0.30134932533733133,-0.11244377811094453,-0.3988005997001499,1238.8278388278388,96.96860838475166,33.73227989750448,
1771001186870.4895,-6.184782608695652,5.043478260869565,3.5978260869565215,-9.13704368641532,2.853381208856972,1.4817474566128066,4033.6996336996335,1809.5238095238094,1.0,4.745312759250041,210.73426573426573,-4.717557251908397,1.3435114503816794,0.8396946564885496,-0.29685157421289354,-0.10944527736131934,-0.416791604197901,1233.6996336996335,96.96575023267216,33.73227989750448,
1771001186890.0215,-6.184782608695652,5.08695652173913,3.5869565217391304,-9.141831238779174,2.8964691801316578,1.5200478755236384,4035.164835164835,1810.2564102564102,1.0,4.745312759250041,210.73426573426573,-4.488549618320611,1.9389312977099236,0.7480916030534351,-0.3028485757121439,-0.10494752623688156,-0.41379310344827586,1229.3040293040292,96.96575023267216,33.73227989750448,
1771001186909.5537,-6.108695652173913,5.119565217391304,3.5869565217391304,-9.043686415320167,2.9275882704967087,1.5200478755236384,4013.1868131868127,1779.4871794871794,1.0,4.745312759250041,210.73426573426573,-4.641221374045801,1.0229007633587786,0.8091603053435115,-0.29685157421289354,-0.12143928035982009,-0.41379310344827586,1225.6410256410256,96.96575023267216,33.73227989750448,
1771001186929.0854,-6.021739130434782,5.119565217391304,3.5869565217391304,-8.940754039497307,2.9563135846798323,1.5320167564332734,4036.6300366300366,1808.058608058608,1.0,4.740207527663974,210.96122778675283,-4.885496183206107,0.183206106870229,0.41221374045801523,-0.29535232383808097,-0.13193403298350825,-0.3988005997001499,1218.3150183150183,96.96575023267216,33.73227989750448,
1771001186948.6174,-6.010869565217392,5.1521739130434785,3.6304347826086953,-8.902453620586474,2.9922202274087373,1.5798922800718131,4036.6300366300366,1815.3846153846152,1.0,4.740207527663974,210.96122778675283,-5.66412213740458,-2.2900763358778624,-0.7022900763358778,-0.3028485757121439,-0.13493253373313344,-0.4077961019490255,1205.8608058608058,96.97432469736702,33.73227989750448,
1771001186968.1494,-6.043478260869565,5.184782608695652,3.641304347826087,-8.926391382405745,2.999401555954518,1.589467384799521,4033.6996336996335,1810.2564102564102,1.0,4.740207527663974,210.96122778675283,-5.2824427480916025,-2.198473282442748,-1.6030534351145038,-0.2908545727136432,-0.12443778110944527,-0.4047976011994003,1194.1391941391942,96.96575023267216,33.73227989750448,
1771001186987.6814,-6.184782608695652,5.173913043478261,3.6739130434782608,-9.074805505685218,3.035308198683423,1.6277678037103531,4036.6300366300366,1816.8498168498168,1.0,4.740207527663974,210.96122778675283,-4.595419847328244,-2.5038167938931295,-2.519083969465649,-0.3028485757121439,-0.136431784107946,-0.4032983508245877,1187.5457875457876,96.96575023267216,33.73227989750448,
1771001187007.2134,-6.315217391304348,5.141304347826087,3.5978260869565215,-9.165769000598443,2.9778575703171755,1.5798922800718131,4038.0952380952376,1813.186813186813,1.0,4.740207527663974,210.96122778675283,-3.9847328244274807,-2.213740458015267,-2.4885496183206106,-0.2983508245877061,-0.13343328335832083,-0.4122938530734633,1185.3479853479853,96.96575023267216,33.73227989750448,
1771001187026.7454,-6.4021739130434785,5.119565217391304,3.532608695652174,-9.354877318970676,2.9970077797725914,1.5128665469778575,4038.0952380952376,1812.4542124542124,1.0,4.740207527663974,210.96122778675283,-2.9923664122137406,-2.396946564885496,-2.7938931297709924,-0.29535232383808097,-0.1184407796101949,-0.4047976011994003,1194.1391941391942,96.96575023267216,33.73227989750448,
1771001187046.277,-6.33695652173913,5.163043478260869,3.4891304347826084,-9.347695990424896,2.9802513464991023,1.4625972471573907,4036.6300366300366,1816.8498168498168,1.0,4.740207527663974,210.96122778675283,-2.4732824427480917,-2.2900763358778624,-2.6717557251908395,-0.29985007496251875,-0.13793103448275862,-0.4032983508245877,1211.7216117216117,96.97146653964995,33.73227989750448,
1771001187065.809,-6.239130434782608,5.163043478260869,3.434782608695652,-9.2327947336924,3.020945541591861,1.381208856971873,4013.1868131868127,1781.6849816849815,1.0,4.740207527663974,210.96122778675283,-2.3053435114503817,-2.33587786259542,-2.6717557251908395,-0.29985007496251875,-0.12893553223388304,-0.40929535232383807,1221.9780219780218,96.97146653964995,33.73227989750448,
1771001187085.3413,-6.141304347826087,5.25,3.4891304347826084,-9.26391382405745,3.1430281268701377,1.3883901855176541,4010.25641025641,1764.8351648351647,1.0,4.740207527663974,210.96122778675283,-4.305343511450381,-2.1068702290076335,-3.7709923664122136,-0.3028485757121439,-0.12743628185907047,-0.3988005997001499,1224.1758241758241,96.96860838475166,33.73227989750448,
1771001187104.8733,-6.184782608695652,5.391304347826087,3.5,-9.093955715140634,3.253141831238779,1.400359066427289,4036.6300366300366,1803.6630036630036,1.0,4.740207527663974,210.96122778675283,-2.229007633587786,-0.12213740458015267,-1.4961832061068703,-0.3028485757121439,-0.12593703148425786,-0.41379310344827586,1218.3150183150183,96.97146653964995,33.73227989750448,
1771001187124.4053,-6.326086956521739,5.33695652173913,3.5217391304347827,-9.283064033512867,3.1693596648713345,1.4602034709754637,4035.164835164835,1808.058608058608,1.0,4.740207527663974,210.96122778675283,-1.648854961832061,-0.8396946564885496,-1.099236641221374,-0.29385307346326833,-0.11094452773613193,-0.416791604197901,1243.956043956044,96.96575023267216,33.73227989750448,
1771001187143.9373,-6.33695652173913,5.282608695652174,3.5978260869565215,-9.285457809694794,3.1717534410532613,1.5631358467983243,4038.0952380952376,1810.989010989011,1.0,4.735102296077907,211.188679245283,-2.610687022900763,-1.3587786259541985,-1.6030534351145038,-0.29985007496251875,-0.13043478260869565,-0.4047976011994003,1309.89010989011,96.96575023267216,33.73227989750448,
1771001187163.4692,-6.206521739130435,5.25,3.684782608695652,-9.199281867145421,3.0999401555954518,1.63016157989228,4036.6300366300366,1816.8498168498168,1.0,4.740207527663974,210.96122778675283,-2.1374045801526718,-2.8702290076335877,-1.2519083969465647,-0.3088455772113943,-0.136431784107946,-0.40929535232383807,1401.4652014652013,96.97146653964995,33.73227989750448,
1771001187183.0012,-6.239130434782608,5.173913043478261,3.6739130434782608,-9.127468581687612,3.044883303411131,1.644524236983842,4035.164835164835,1812.4542124542124,1.0,4.740207527663974,210.96122778675283,-0.9618320610687022,-1.9541984732824427,-0.2748091603053435,-0.30134932533733133,-0.13493253373313344,-0.41079460269865065,1494.5054945054944,96.97146653964995,33.73227989750448,
1771001187202.5332,-6.271739130434782,5.08695652173913,3.619565217391304,-9.228007181328545,2.9060442848593655,1.5918611609814481,4036.6300366300366,1816.8498168498168,1.0,4.740207527663974,210.96122778675283,-1.1450381679389312,-2.4580152671755724,-1.3129770992366412,-0.2983508245877061,-0.1394302848575712,-0.4047976011994003,1567.032967032967,96.97146653964995,33.73227989750448,
1771001187222.0652,-6.206521739130435,5.065217391304348,3.5760869565217392,-9.149012567324954,2.8964691801316578,1.5104727707959305,4013.1868131868127,1781.6849816849815,1.0,4.740207527663974,210.96122778675283,-1.114503816793893,-2.396946564885496,-0.5954198473282443,-0.29535232383808097,-0.1409295352323838,-0.40929535232383807,1595.6043956043954,96.96860838475166,33.73227989750448,
1771001187241.5972,-6.239130434782608,5.054347826086956,3.5978260869565215,-9.156193895870736,2.8677438659485337,1.5296229802513464,4038.0952380952376,1802.9304029304028,1.0,4.735102296077907,211.188679245283,-1.4198473282442747,-3.3587786259541983,-1.5877862595419847,-0.30134932533733133,-0.12593703148425786,-0.4077961019490255,1580.9523809523807,96.96575023267216,33.73227989750448,
1771001187261.1292,-6.119565217391304,5.054347826086956,3.608695652173913,-9.048473967684021,2.9251944943147814,1.5344105326152004,4036.6300366300366,1814.6520146520145,1.0,4.740207527663974,210.96122778675283,-1.6030534351145038,-1.816793893129771,-1.6335877862595418,-0.3058470764617691,-0.12743628185907047,-0.4017991004497751,1532.6007326007325,96.97146653964995,33.73227989750448,
1771001187280.6611,-6.108695652173913,5.08695652173913,3.608695652173913,-9.036505086774387,2.9036505086774387,1.5368043087971275,4035.164835164835,1810.989010989011,1.0,4.740207527663974,210.96122778675283,-2.091603053435114,-2.198473282442748,-2.4732824427480917,-0.3043478260869565,-0.12893553223388304,-0.4032983508245877,1466.6666666666665,96.9771828579029,33.73227989750448,
1771001187300.193,-6.108695652173913,5.119565217391304,3.641304347826087,-9.050867743865949,2.9251944943147814,1.5942549371633752,4036.6300366300366,1816.117216117216,1.0,4.735102296077907,211.188679245283,-2.1526717557251906,-1.450381679389313,-3.2671755725190836,-0.3043478260869565,-0.12593703148425786,-0.4032983508245877,1395.6043956043954,96.97146653964995,33.73227989750448,
1771001187319.725,-6.282608695652174,5.130434782608695,3.6630434782608696,-9.220825852782765,2.951526032315978,1.642130460801915,4035.164835164835,1811.7216117216117,1.0,4.740207527663974,210.96122778675283,-1.9694656488549618,-1.114503816793893,-3.2519083969465647,-0.3028485757121439,-0.1409295352323838,-0.4077961019490255,1344.3223443223442,96.96575023267216,33.73227989750448,
1771001187339.2568,-6.282608695652174,5.163043478260869,3.7282608695652173,-9.21603830041891,2.9850388988629564,1.6804308797127467,4035.164835164835,1810.2564102564102,1.0,4.740207527663974,210.96122778675283,-2.1374045801526718,-2.763358778625954,-4.1679389312977095,-0.3043478260869565,-0.10944527736131934,-0.40629685157421286,1309.89010989011,96.96860838475166,33.73227989750448,
1771001187358.7888,-6.130434782608695,5.184782608695652,3.7717391304347827,-9.091561938958707,3.01376421304608,1.6828246558946738,4035.164835164835,1810.2564102564102,1.0,4.735102296077907,211.188679245283,-1.7099236641221374,-3.6030534351145036,-4.1679389312977095,-0.3043478260869565,-0.1409295352323838,-0.41529235382308843,1289.3772893772893,96.96575023267216,33.73227989750448,
1771001187378.3208,-6.141304347826087,5.119565217391304,3.75,-9.08916816277678,2.9730700179533214,1.6876122082585279,4011.721611721611,1774.3589743589741,1.0,4.735102296077907,211.188679245283,-0.6564885496183206,-1.648854961832061,-4.1679389312977095,-0.29985007496251875,-0.14692653673163417,-0.39730134932533734,1298.9010989010987,96.96575023267216,33.73227989750448,
1771001187397.8528,-6.25,5.141304347826087,3.6739130434782608,-9.149012567324954,2.951526032315978,1.634949132256134,4035.164835164835,1799.9999999999998,1.0,4.735102296077907,211.188679245283,-0.030534351145038167,-0.5190839694656488,-2.8244274809160306,-0.3028485757121439,-0.12743628185907047,-0.4032983508245877,1322.3443223443223,96.96575023267216,33.73227989750448,
1771001187417.3848,-6.358695652173913,5.108695652173913,3.684782608695652,-9.31178934769599,2.9467384799521246,1.642130460801915,4035.164835164835,1807.3260073260071,1.0,4.735102296077907,211.188679245283,-0.16793893129770993,-1.0076335877862594,-2.2900763358778624,-0.3028485757121439,-0.12743628185907047,-0.42278860569715143,1345.7875457875457,96.97146653964995,33.73227989750448,
1771001187436.9167,-6.3478260869565215,5.108695652173913,3.6739130434782608,-9.330939557151407,2.9419509275882705,1.6756433273488929,4032.234432234432,1802.197802197802,1.0,4.735102296077907,211.188679245283,-0.030534351145038167,-1.9083969465648853,-2.5801526717557253,-0.3028485757121439,-0.12143928035982009,-0.4032983508245877,1361.1721611721612,96.96575023267216,33.73227989750448,
1771001187456.4487,-6.271739130434782,5.076086956521739,3.6630434782608696,-9.22561340514662,2.9156193895870737,1.6062238180730102,4005.8608058608056,1769.230769230769,1.0,4.735102296077907,211.188679245283,0.015267175572519083,-1.5419847328244274,-2.4427480916030535,-0.29985007496251875,-0.12293853073463268,-0.40629685157421286,1369.9633699633698,96.96575023267216,33.73227989750448,
1771001187475.9807,-6.282608695652174,5.054347826086956,3.6304347826086953,-9.247157390783961,2.8964691801316578,1.5870736086175943,4033.6996336996335,1797.8021978021977,1.0,4.735102296077907,211.188679245283,-0.07633587786259542,-1.282442748091603,-2.198473282442748,-0.3058470764617691,-0.13343328335832083,-0.4077961019490255,1364.102564102564,96.96575023267216,33.73227989750448,
1771001187495.5127,-6.271739130434782,5.065217391304348,3.641304347826087,-9.237582286056254,2.8988629563135846,1.5846798324356672,4032.234432234432,1799.9999999999998,1.0,4.735102296077907,211.188679245283,0.2900763358778626,-1.0229007633587786,-2.015267175572519,-0.3043478260869565,-0.13793103448275862,-0.4017991004497751,1347.2527472527472,96.96860838475166,33.73227989750448,
1771001187515.045,-6.282608695652174,5.076086956521739,3.619565217391304,-9.220825852782765,2.8868940754039496,1.5822860562537402,4035.164835164835,1807.3260073260071,1.0,4.735102296077907,211.188679245283,0.22900763358778625,-0.2748091603053435,-1.9694656488549618,-0.3043478260869565,-0.13343328335832083,-0.41379310344827586,1320.8791208791208,96.97146653964995,33.73227989750448,
1771001187534.577,-6.271739130434782,5.076086956521739,3.652173913043478,-9.196888090963494,2.8821065230400955,1.622980251346499,4010.25641025641,1772.161172161172,1.0,4.735102296077907,211.188679245283,-0.015267175572519083,0.2595419847328244,-1.618320610687023,-0.29385307346326833,-0.12893553223388304,-0.4017991004497751,1293.7728937728937,96.97432469736702,33.73227989750448,
1771001187554.1086,-6.271739130434782,5.043478260869565,3.6304347826086953,-9.247157390783961,2.8749251944943146,1.5918611609814481,4035.164835164835,1799.2673992673992,1.0,4.735102296077907,211.188679245283,-0.15267175572519084,0.15267175572519084,-1.7709923664122136,-0.3073463268365817,-0.12893553223388304,-0.416791604197901,1281.3186813186812,96.97146653964995,33.73227989750448,
1771001187573.6406,-6.195652173913043,5.08695652173913,3.5978260869565215,-9.175344105326152,2.8868940754039496,1.5463794135248354,4036.6300366300366,1813.186813186813,1.0,4.735102296077907,211.188679245283,-0.5954198473282443,-0.5038167938931297,-1.984732824427481,-0.3058470764617691,-0.12743628185907047,-0.41379310344827586,1276.923076923077,96.97432469736702,33.73227989750448,
1771001187593.1726,-6.119565217391304,5.108695652173913,3.6304347826086953,-9.062836624775583,2.9371633752244164,1.5822860562537402,4032.234432234432,1803.6630036630036,1.0,4.735102296077907,211.188679245283,-0.8549618320610687,0.0916030534351145,-1.7099236641221374,-0.29685157421289354,-0.12293853073463268,-0.4017991004497751,1271.7948717948716,96.97274017963568,33.72222960330546,
1771001187612.7046,-6.228260869565217,5.141304347826087,3.6630434782608696,-9.139437462597247,2.9611011370436864,1.5918611609814481,4036.6300366300366,1814.6520146520145,1.0,4.735102296077907,211.188679245283,-1.3129770992366412,0.8549618320610687,-1.5725190839694656,-0.3058470764617691,-0.13043478260869565,-0.39730134932533734,1260.07326007326,96.96702395962389,33.72222960330546,
1771001187632.2366,-6.304347826086956,5.130434782608695,3.6304347826086953,-9.2327947336924,2.9587073608617596,1.5774985038898863,4036.6300366300366,1816.8498168498168,1.0,4.735102296077907,211.188679245283,-1.450381679389313,1.2213740458015268,-1.5572519083969465,-0.29985007496251875,-0.1394302848575712,-0.4032983508245877,1252.7472527472526,96.96988206822041,33.72222960330546,
1771001187651.7686,-6.206521739130435,5.163043478260869,3.652173913043478,-9.175344105326152,2.9970077797725914,1.6086175942549372,4007.326007326007,1773.6263736263736,1.0,4.735102296077907,211.188679245283,-1.5267175572519083,-0.564885496183206,-1.8473282442748091,-0.29535232383808097,-0.136431784107946,-0.41529235382308843,1242.4908424908424,96.96988206822041,33.72222960330546,
1771001187671.3003,-6.1521739130434785,5.184782608695652,3.7065217391304346,-9.079593058049072,3.032914422501496,1.6828246558946738,4035.164835164835,1799.9999999999998,1.0,4.735102296077907,211.188679245283,-1.0229007633587786,-0.8549618320610687,-1.1450381679389312,-0.3058470764617691,-0.13043478260869565,-0.4032983508245877,1246.153846153846,96.96988206822041,33.72222960330546,
1771001187690.8325,-6.195652173913043,5.239130434782608,3.760869565217391,-9.11310592459605,3.054458408138839,1.6923997606223817,4011.721611721611,1770.6959706959706,1.0,4.735102296077907,211.188679245283,-0.1984732824427481,-0.7786259541984732,-0.7022900763358778,-0.3118440779610195,-0.1424287856071964,-0.3988005997001499,1254.9450549450548,96.97559829386962,33.72222960330546,
1771001187710.3645,-6.239130434782608,5.260869565217392,3.782608695652174,-9.165769000598443,3.0831837223219627,1.7570317175344106,4036.6300366300366,1805.8608058608058,1.0,4.729997064491838,211.41662169454938,-0.48854961832061067,-1.114503816793893,-0.7480916030534351,-0.29985007496251875,-0.13493253373313344,-0.39430284857571213,1249.8168498168498,96.96416585384604,33.72222960330546,
1771001187729.8965,-6.228260869565217,5.184782608695652,3.8260869565217392,-9.17773788150808,3.011370436864153,1.7809694793536803,4035.164835164835,1808.7912087912086,1.0,4.735102296077907,211.188679245283,0.13740458015267176,-1.282442748091603,-1.0229007633587786,-0.29685157421289354,-0.12893553223388304,-0.4002998500749625,1245.4212454212454,96.96988206822041,33.72222960330546,
1771001187749.4282,-6.206521739130435,5.163043478260869,3.793478260869565,-9.165769000598443,3.01376421304608,1.7642130460801915,4032.234432234432,1802.197802197802,1.0,4.729997064491838,211.41662169454938,0.7022900763358778,-2.3206106870229006,-1.4198473282442747,-0.30134932533733133,-0.1394302848575712,-0.39730134932533734,1243.956043956044,96.96988206822041,33.72222960330546,
1771001187768.9602,-6.173913043478261,5.119565217391304,3.717391304347826,-9.110712148414123,2.9443447037701973,1.67803710353082,4036.6300366300366,1813.9194139194137,1.0,4.735102296077907,211.188679245283,1.129770992366412,-2.9770992366412212,-1.5419847328244274,-0.29985007496251875,-0.12893553223388304,-0.3958020989505247,1238.8278388278388,96.97274017963568,33.72222960330546,
1771001187788.4922,-6.1521739130434785,5.119565217391304,3.6304347826086953,-9.110712148414123,2.9228007181328546,1.5870736086175943,4036.6300366300366,1817.5824175824175,1.0,4.729997064491838,211.41662169454938,1.9236641221374045,-2.916030534351145,-1.9236641221374045,-0.29535232383808097,-0.136431784107946,-0.39730134932533734,1229.3040293040292,96.96988206822041,33.72222960330546,
1771001187808.0242,-6.0978260869565215,5.141304347826087,3.5869565217391304,-9.038898862956314,2.9275882704967087,1.5511669658886893,4036.6300366300366,1818.3150183150183,1.0,4.735102296077907,211.188679245283,0.7938931297709924,-3.1908396946564883,-1.5419847328244274,-0.29685157421289354,-0.13793103448275862,-0.3913043478260869,1230.03663003663,96.96988206822041,33.72222960330546,
1771001187827.5562,-6.141304347826087,5.1521739130434785,3.7065217391304346,-9.053261520047876,2.970676241771394,1.5846798324356672,4035.164835164835,1812.4542124542124,1.0,4.729997064491838,211.41662169454938,0.7175572519083969,-2.2748091603053435,-1.3587786259541985,-0.30134932533733133,-0.11544227886056971,-0.4077961019490255,1257.8754578754579,96.96988206822041,33.72222960330546,
1771001187847.088,-6.217391304347826,5.184782608695652,3.717391304347826,-9.12986235786954,3.001795332136445,1.6732495511669658,4011.721611721611,1774.3589743589741,1.0,4.735102296077907,211.188679245283,0.48854961832061067,-2.687022900763359,-1.2061068702290076,-0.29685157421289354,-0.13793103448275862,-0.3988005997001499,1296.7032967032967,96.96130775088692,33.72222960330546,
1771001187866.62,-6.239130434782608,5.206521739130435,3.793478260869565,-9.194494314781569,3.030520646319569,1.7211250748055056,4036.6300366300366,1806.5934065934064,1.0,4.735102296077907,211.188679245283,0.4427480916030534,-3.129770992366412,-1.0534351145038168,-0.30134932533733133,-0.1394302848575712,-0.39730134932533734,1374.3589743589744,96.97274017963568,33.72222960330546,
1771001187886.152,-6.184782608695652,5.206521739130435,3.8043478260869565,-9.141831238779174,3.01376421304608,1.7642130460801915,4035.164835164835,1808.7912087912086,1.0,4.735102296077907,211.188679245283,0.7022900763358778,-3.6488549618320607,-0.9923664122137404,-0.3058470764617691,-0.12593703148425786,-0.40629685157421286,1473.9926739926739,96.96988206822041,33.72222960330546,
1771001187905.684,-6.195652173913043,5.173913043478261,3.793478260869565,-9.156193895870736,2.999401555954518,1.7307001795332135,4032.234432234432,1802.197802197802,1.0,4.729997064491838,211.41662169454938,0.6564885496183206,-2.610687022900763,-0.8702290076335878,-0.3028485757121439,-0.1199400299850075,-0.39430284857571213,1564.8351648351647,96.96988206822041,33.72222960330546,
1771001187925.216,-6.228260869565217,5.173913043478261,3.7282608695652173,-9.156193895870736,3.018551765409934,1.7019748653500897,4007.326007326007,1769.230769230769,1.0,4.735102296077907,211.188679245283,0.42748091603053434,-2.717557251908397,-0.9618320610687022,-0.3043478260869565,-0.13343328335832083,-0.4047976011994003,1629.3040293040292,96.96988206822041,33.72222960330546,
1771001187944.748,-6.206521739130435,5.173913043478261,3.641304347826087,-9.17773788150808,2.9970077797725914,1.601436265709156,4035.164835164835,1799.2673992673992,1.0,4.729997064491838,211.41662169454938,-0.3053435114503817,-2.16793893129771,-1.099236641221374,-0.29685157421289354,-0.13793103448275862,-0.4002998500749625,1652.7472527472526,96.96130775088692,33.72222960330546,
1771001187964.28,-6.173913043478261,5.173913043478261,3.684782608695652,-9.101137043686416,3.006582884500299,1.632555356074207,4035.164835164835,1806.5934065934064,1.0,4.735102296077907,211.188679245283,-0.9923664122137404,-1.099236641221374,-1.5419847328244274,-0.3028485757121439,-0.14392803598200898,-0.39430284857571213,1626.3736263736262,96.96988206822041,33.72222960330546,
1771001187983.812,-6.282608695652174,5.119565217391304,3.7065217391304346,-9.163375224416518,2.98982645122681,1.6493117893476958,4035.164835164835,1808.7912087912086,1.0,4.729997064491838,211.41662169454938,-1.083969465648855,-1.129770992366412,-0.4427480916030534,-0.3043478260869565,-0.1424287856071964,-0.39280359820089955,1564.8351648351647,96.97559829386962,33.72222960330546,
1771001188003.344,-6.260869565217391,5.130434782608695,3.717391304347826,-9.275882704967085,2.982645122681029,1.6900059844404547,4010.25641025641,1772.161172161172,1.0,4.729997064491838,211.41662169454938,-1.465648854961832,-1.2519083969465647,-0.3511450381679389,-0.3073463268365817,-0.1454272863568216,-0.4077961019490255,1498.9010989010987,96.96130775088692,33.72222960330546,
1771001188022.876,-6.173913043478261,5.173913043478261,3.7391304347826084,-9.093955715140634,3.001795332136445,1.6732495511669658,4035.164835164835,1799.9999999999998,1.0,4.729997064491838,211.41662169454938,-1.5572519083969465,-1.6335877862595418,-1.282442748091603,-0.29985007496251875,-0.13043478260869565,-0.39430284857571213,1441.7582417582416,96.96988206822041,33.72222960330546,
1771001188042.408,-6.206521739130435,5.163043478260869,3.717391304347826,-9.127468581687612,3.0161579892280073,1.6756433273488929,4035.164835164835,1807.3260073260071,1.0,4.735102296077907,211.188679245283,-2.427480916030534,-1.7404580152671756,-1.2366412213740459,-0.3028485757121439,-0.13493253373313344,-0.3958020989505247,1400.0,96.96988206822041,33.72222960330546,
1771001188061.94,-6.217391304347826,5.1521739130434785,3.717391304347826,-9.165769000598443,2.999401555954518,1.6732495511669658,4030.7692307692305,1806.5934065934064,1.0,4.729997064491838,211.41662169454938,-2.854961832061069,-0.549618320610687,-1.9083969465648853,-0.3073463268365817,-0.12893553223388304,-0.39730134932533734,1361.1721611721612,96.96416585384604,33.72222960330546,
1771001188081.472,-6.217391304347826,5.1521739130434785,3.717391304347826,-9.158587672052663,2.98982645122681,1.637342908438061,4035.164835164835,1809.5238095238094,1.0,4.729997064491838,211.41662169454938,-3.2519083969465647,-0.7022900763358778,-2.1374045801526718,-0.3088455772113943,-0.12443778110944527,-0.4002998500749625,1333.3333333333333,96.96702395962389,33.72222960330546,
1771001188101.004,-6.217391304347826,5.141304347826087,3.6956521739130435,-9.146618791143029,2.987432675044883,1.6708557749850388,4035.164835164835,1809.5238095238094,1.0,4.729997064491838,211.41662169454938,-3.9236641221374042,-1.0381679389312977,-1.8015267175572518,-0.29985007496251875,-0.1409295352323838,-0.3988005997001499,1315.7509157509157,96.96988206822041,33.72222960330546,
1771001188120.536,-6.184782608695652,5.1521739130434785,3.7282608695652173,-9.144225014961101,2.982645122681029,1.6804308797127467,4035.164835164835,1809.5238095238094,1.0,4.729997064491838,211.41662169454938,-4.488549618320611,-0.7786259541984732,-2.4885496183206106,-0.3028485757121439,-0.14392803598200898,-0.4002998500749625,1312.087912087912,96.96416585384604,33.72222960330546,
1771001188140.068,-6.206521739130435,5.1521739130434785,3.717391304347826,-9.127468581687612,2.970676241771394,1.6852184320766008,4033.6996336996335,1809.5238095238094,1.0,4.729997064491838,211.41662169454938,-5.251908396946565,-0.4427480916030534,-2.33587786259542,-0.3088455772113943,-0.15142428785607195,-0.39730134932533734,1326.007326007326,96.96988206822041,33.72222960330546,
1771001188159.5996,-6.239130434782608,5.1521739130434785,3.75,-9.206463195691203,2.9730700179533214,1.6923997606223817,4010.25641025641,1772.8937728937728,1.0,4.729997064491838,211.41662169454938,-5.49618320610687,-0.366412213740458,-2.351145038167939,-0.29985007496251875,-0.1409295352323838,-0.39430284857571213,1327.4725274725274,96.96416585384604,33.72222960330546,
1771001188179.1316,-6.293478260869565,5.195652173913043,3.760869565217391,-9.261520047875523,3.011370436864153,1.7235188509874326,4035.164835164835,1799.9999999999998,1.0,4.729997064491838,211.41662169454938,-5.847328244274809,-1.297709923664122,-2.16793893129771,-0.3118440779610195,-0.13193403298350825,-0.3913043478260869,1323.8095238095236,96.96702395962389,33.72222960330546,
1771001188198.6636,-6.195652173913043,5.271739130434782,3.760869565217391,-9.163375224416518,3.092758827049671,1.7307001795332135,4035.164835164835,1807.3260073260071,1.0,4.729997064491838,211.41662169454938,-5.770992366412213,-1.816793893129771,-2.4732824427480917,-0.30134932533733133,-0.13793103448275862,-0.39730134932533734,1315.7509157509157,96.96702395962389,33.72222960330546,
1771001188218.1956,-6.206521739130435,5.358695652173913,3.7717391304347827,-9.115499700777978,3.2004787552363854,1.7211250748055056,4029.304029304029,1799.2673992673992,1.0,4.729997064491838,211.41662169454938,-5.7251908396946565,-2.2900763358778624,-2.183206106870229,-0.3043478260869565,-0.136431784107946,-0.3958020989505247,1290.8424908424909,96.96988206822041,33.72222960330546,
1771001188237.7275,-6.108695652173913,5.25,3.8260869565217392,-9.108318372232196,3.0903650508677436,1.7666068222621185,4008.7912087912086,1763.3699633699632,1.0,4.729997064491838,211.41662169454938,-5.770992366412213,-3.2671755725190836,-2.030534351145038,-0.30134932533733133,-0.136431784107946,-0.4047976011994003,1276.923076923077,96.96988206822041,33.72222960330546,
1771001188257.2595,-6.076086956521739,5.293478260869565,3.902173913043478,-9.000598444045481,3.1238779174147218,1.82884500299222,4036.6300366300366,1802.9304029304028,1.0,4.7248918329057705,211.645056726094,-5.099236641221374,-1.1603053435114503,-2.33587786259542,-0.3028485757121439,-0.14392803598200898,-0.4017991004497751,1267.3992673992673,96.97274017963568,33.72222960330546,
1771001188276.7915,-6.239130434782608,5.206521739130435,3.8369565217391304,-9.08916816277678,3.0951526032315977,1.82884500299222,4035.164835164835,1808.058608058608,1.0,4.7248918329057705,211.645056726094,-4.67175572519084,-0.15267175572519084,-1.2366412213740459,-0.3028485757121439,-0.1424287856071964,-0.4017991004497751,1250.5494505494505,96.96988206822041,33.72222960330546,
1771001188296.3235,-6.239130434782608,5.184782608695652,3.8152173913043477,-9.230400957510472,3.068821065230401,1.7642130460801915,4036.6300366300366,1816.117216117216,1.0,4.729997064491838,211.41662169454938,-4.65648854961832,-1.129770992366412,-1.816793893129771,-0.3058470764617691,-0.1454272863568216,-0.4032983508245877,1241.7582417582416,96.97559829386962,33.72222960330546,
1771001188315.8557,-6.119565217391304,5.217391304347826,3.8043478260869565,-9.084380610412927,3.018551765409934,1.7618192698982644,4011.721611721611,1775.8241758241757,1.0,4.7248918329057705,211.645056726094,-4.396946564885496,-2.1374045801526718,-1.7251908396946565,-0.31334332833583206,-0.12743628185907047,-0.3958020989505247,1244.6886446886447,96.96988206822041,33.72222960330546,
1771001188335.3877,-6.184782608695652,5.184782608695652,3.793478260869565,-9.079593058049072,3.01376421304608,1.7713943746259724,4036.6300366300366,1807.3260073260071,1.0,4.7248918329057705,211.645056726094,-4.488549618320611,-0.6259541984732824,-1.2519083969465647,-0.3088455772113943,-0.13193403298350825,-0.41079460269865065,1252.7472527472526,96.96416585384604,33.72222960330546,
1771001188354.9194,-6.1521739130434785,5.195652173913043,3.8152173913043477,-9.122681029323758,3.020945541591861,1.7833632555356074,4036.6300366300366,1816.117216117216,1.0,4.729997064491838,211.41662169454938,-4.366412213740458,-0.7633587786259541,-2.015267175572519,-0.3118440779610195,-0.13193403298350825,-0.39430284857571213,1261.5384615384614,96.96416585384604,33.72222960330546,
1771001188374.4514,-6.130434782608695,5.206521739130435,3.8043478260869565,-9.081986834231,3.0041891083183723,1.7522441651705565,4029.304029304029,1802.197802197802,1.0,4.7248918329057705,211.645056726094,-4.748091603053435,-0.6106870229007634,-1.648854961832061,-0.3118440779610195,-0.1394302848575712,-0.39730134932533734,1267.3992673992673,96.96702395962389,33.72222960330546,
1771001188393.9834,-6.1521739130434785,5.184782608695652,3.8478260869565215,-9.079593058049072,3.018551765409934,1.8049072411729503,4036.6300366300366,1814.6520146520145,1.0,4.7248918329057705,211.645056726094,-5.038167938931298,-0.5343511450381679,-2.198473282442748,-0.3073463268365817,-0.1409295352323838,-0.4017991004497751,1261.5384615384614,96.96702395962389,33.72222960330546,
1771001188413.5154,-6.141304347826087,5.195652173913043,3.858695652173913,-9.067624177139438,3.0041891083183723,1.8240574506283662,4036.6300366300366,1817.5824175824175,1.0,4.7248918329057705,211.645056726094,-4.870229007633587,-0.183206106870229,-2.1068702290076335,-0.3103448275862069,-0.1409295352323838,-0.4017991004497751,1257.8754578754579,96.96988206822041,33.72222960330546,
1771001188433.0474,-6.184782608695652,5.195652173913043,3.8804347826086953,-9.12986235786954,3.03770197486535,1.8384201077199283,4035.164835164835,1812.4542124542124,1.0,4.7248918329057705,211.645056726094,-5.022900763358779,-0.24427480916030533,-1.5877862595419847,-0.29535232383808097,-0.14392803598200898,-0.4077961019490255,1260.8058608058607,96.96702395962389,33.72222960330546,
1771001188452.579,-6.163043478260869,5.271739130434782,3.9239130434782608,-9.108318372232196,3.08557749850389,1.864751645721125,4036.6300366300366,1809.5238095238094,1.0,4.7248918329057705,211.645056726094,-4.748091603053435,-0.6106870229007634,-1.618320610687023,-0.30134932533733133,-0.12743628185907047,-0.41829085457271364,1263.003663003663,96.96988206822041,33.72222960330546,
1771001188472.111,-6.239130434782608,5.25,3.9456521739130435,-9.16098144823459,3.0712148414123277,1.9102333931777378,4011.721611721611,1773.6263736263736,1.0,4.7248918329057705,211.645056726094,-5.068702290076335,-0.12213740458015267,-1.5725190839694656,-0.3043478260869565,-0.13193403298350825,-0.3988005997001499,1258.6080586080586,96.97274017963568,33.72222960330546,
1771001188491.6433,-6.304347826086956,5.195652173913043,3.9130434782608696,-9.242369838420107,3.040095751047277,1.8982645122681028,4036.6300366300366,1806.5934065934064,1.0,4.7248918329057705,211.645056726094,-3.8625954198473282,0.564885496183206,-1.6030534351145038,-0.3073463268365817,-0.12743628185907047,-0.3958020989505247,1247.6190476190475,96.96988206822041,33.72222960330546,
1771001188511.1753,-6.217391304347826,5.184782608695652,3.8478260869565215,-9.17773788150808,3.0281268701376423,1.869539198084979,4036.6300366300366,1815.3846153846152,1.0,4.7248918329057705,211.645056726094,-3.7404580152671754,-0.3969465648854962,-0.9618320610687022,-0.3103448275862069,-0.13193403298350825,-0.4077961019490255,1235.8974358974358,96.96702395962389,33.72222960330546,
1771001188530.7073,-6.108695652173913,5.184782608695652,3.782608695652174,-9.07241172950329,3.0089766606822264,1.7737881508078994,4029.304029304029,1801.4652014652013,1.0,4.7248918329057705,211.645056726094,-3.145038167938931,0.04580152671755725,-0.4427480916030534,-0.2983508245877061,-0.136431784107946,-0.4077961019490255,1221.9780219780218,96.96702395962389,33.72222960330546,
1771001188550.2393,-6.08695652173913,5.195652173913043,3.7717391304347827,-9.01735487731897,3.006582884500299,1.7330939557151406,4036.6300366300366,1813.9194139194137,1.0,4.7248918329057705,211.645056726094,-3.114503816793893,0.41221374045801523,-0.8549618320610687,-0.2983508245877061,-0.12443778110944527,-0.4032983508245877,1217.5824175824175,96.96702395962389,33.72222960330546,
1771001188569.7712,-6.141304347826087,5.217391304347826,3.793478260869565,-9.08916816277678,3.042489527229204,1.7474566128067026,4035.164835164835,1811.7216117216117,1.0,4.7248918329057705,211.645056726094,-3.6488549618320607,0.5954198473282443,-0.8854961832061068,-0.3043478260869565,-0.1169415292353823,-0.4032983508245877,1228.5714285714284,96.97274017963568,33.72222960330546,
1771001188589.303,-6.239130434782608,5.206521739130435,3.8478260869565215,-9.163375224416518,3.040095751047277,1.8240574506283662,4035.164835164835,1810.989010989011,1.0,4.7248918329057705,211.645056726094,-4.244274809160305,1.3282442748091603,-0.7022900763358778,-0.30134932533733133,-0.13043478260869565,-0.4047976011994003,1265.2014652014652,96.97432469736702,33.73227989750448,
1771001188608.835,-6.25,5.195652173913043,3.9239130434782608,-9.201675643327349,3.030520646319569,1.87672052663076,4035.164835164835,1809.5238095238094,1.0,4.7248918329057705,211.645056726094,-4.519083969465648,1.5267175572519083,-0.48854961832061067,-0.3058470764617691,-0.12443778110944527,-0.39430284857571213,1327.4725274725274,96.96575023267216,33.73227989750448,
1771001188628.367,-6.173913043478261,5.173913043478261,3.9456521739130435,-9.144225014961101,3.006582884500299,1.9222022740873728,4011.721611721611,1773.6263736263736,1.0,4.7248918329057705,211.645056726094,-4.3206106870229,1.099236641221374,0.16793893129770993,-0.3058470764617691,-0.12893553223388304,-0.4032983508245877,1424.1758241758241,96.97146653964995,33.73227989750448,
1771001188647.899,-6.1521739130434785,5.173913043478261,3.9130434782608696,-9.06523040095751,3.001795332136445,1.871932974266906,4035.164835164835,1799.9999999999998,1.0,4.7248918329057705,211.645056726094,-3.9083969465648853,1.2366412213740459,-0.22900763358778625,-0.3058470764617691,-0.13193403298350825,-0.3988005997001499,1534.065934065934,96.97432469736702,33.73227989750448,
1771001188667.431,-6.119565217391304,5.173913043478261,3.858695652173913,-9.058049072411729,3.0041891083183723,1.862357869539198,4035.164835164835,1807.3260073260071,1.0,4.7248918329057705,211.645056726094,-3.5725190839694654,1.0687022900763359,-0.2748091603053435,-0.3073463268365817,-0.12593703148425786,-0.40629685157421286,1628.5714285714284,96.96575023267216,33.73227989750448,
1771001188686.963,-6.184782608695652,5.130434782608695,3.858695652173913,-9.079593058049072,2.9922202274087373,1.8001196888090962,4027.8388278388275,1799.2673992673992,1.0,4.7248918329057705,211.645056726094,-3.9847328244274807,1.297709923664122,-0.15267175572519084,-0.3043478260869565,-0.13043478260869565,-0.3988005997001499,1681.3186813186812,96.96860838475166,33.73227989750448,
1771001188706.4949,-6.195652173913043,5.163043478260869,3.8260869565217392,-9.153800119688809,2.9922202274087373,1.8144823459006583,4035.164835164835,1807.3260073260071,1.0,4.7248918329057705,211.645056726094,-4.259541984732825,1.5267175572519083,-0.366412213740458,-0.2983508245877061,-0.11394302848575712,-0.4122938530734633,1683.5164835164835,96.96860838475166,33.73227989750448,
1771001188726.0269,-6.173913043478261,5.184782608695652,3.793478260869565,-9.115499700777978,3.018551765409934,1.7546379413524835,4035.164835164835,1809.5238095238094,1.0,4.7248918329057705,211.645056726094,-4.625954198473282,1.2519083969465647,-0.6106870229007634,-0.3028485757121439,-0.1454272863568216,-0.3958020989505247,1638.095238095238,96.96860838475166,33.73227989750448,
1771001188745.5588,-6.130434782608695,5.206521739130435,3.8260869565217392,-9.101137043686416,3.035308198683423,1.7809694793536803,4021.978021978022,1789.7435897435896,1.0,4.7248918329057705,211.645056726094,-4.7328244274809155,1.7557251908396947,-0.5343511450381679,-0.3103448275862069,-0.1424287856071964,-0.4002998500749625,1567.032967032967,96.97146653964995,33.73227989750448,
1771001188765.0908,-6.130434782608695,5.228260869565217,3.8043478260869565,-9.070017953321365,3.035308198683423,1.7761819269898265,4035.164835164835,1804.3956043956043,1.0,4.7248918329057705,211.645056726094,-4.5038167938931295,1.9389312977099236,-1.0534351145038168,-0.3103448275862069,-0.1199400299850075,-0.40629685157421286,1495.2380952380952,96.97146653964995,33.73227989750448,
1771001188784.6228,-6.206521739130435,5.239130434782608,3.8260869565217392,-9.110712148414123,3.066427289048474,1.7929383602633153,4010.25641025641,1771.4285714285713,1.0,4.7197866013197025,211.87398593834504,-4.748091603053435,2.381679389312977,-0.8549618320610687,-0.3043478260869565,-0.1394302848575712,-0.40629685157421286,1433.6996336996335,96.96575023267216,33.73227989750448,
1771001188804.1548,-6.195652173913043,5.282608695652174,3.8043478260869565,-9.158587672052663,3.0951526032315977,1.7953321364452424,4035.164835164835,1799.2673992673992,1.0,4.7197866013197025,211.87398593834504,-4.763358778625954,2.5038167938931295,-0.47328244274809156,-0.3088455772113943,-0.12743628185907047,-0.4032983508245877,1382.4175824175823,96.97146653964995,33.73227989750448,
1771001188823.6868,-6.119565217391304,5.282608695652174,3.760869565217391,-9.079593058049072,3.1095152603231595,1.7450628366247756,4035.164835164835,1807.3260073260071,1.0,4.7197866013197025,211.87398593834504,-4.519083969465648,2.351145038167939,-0.6564885496183206,-0.3103448275862069,-0.13793103448275862,-0.4017991004497751,1339.9267399267399,96.97146653964995,33.73227989750448,
1771001188843.2188,-6.1521739130434785,5.304347826086956,3.782608695652174,-9.048473967684021,3.1190903650508677,1.7402752842609215,4029.304029304029,1799.9999999999998,1.0,4.7197866013197025,211.87398593834504,-3.9847328244274807,2.717557251908397,-0.2900763358778626,-0.3043478260869565,-0.1394302848575712,-0.3958020989505247,1322.3443223443223,96.96575023267216,33.73227989750448,
1771001188862.7507,-6.195652173913043,5.282608695652174,3.8152173913043477,-9.12986235786954,3.1358467983243568,1.7737881508078994,4036.6300366300366,1813.186813186813,1.0,4.7197866013197025,211.87398593834504,-4.458015267175572,2.8244274809160306,-0.04580152671755725,-0.3058470764617691,-0.10944527736131934,-0.39430284857571213,1323.8095238095236,96.96575023267216,33.73227989750448,
1771001188882.2827,-6.206521739130435,5.293478260869565,3.858695652173913,-9.144225014961101,3.1358467983243568,1.8144823459006583,4035.164835164835,1810.989010989011,1.0,4.7197866013197025,211.87398593834504,-4.1679389312977095,2.8091603053435112,0.13740458015267176,-0.3088455772113943,-0.14992503748125938,-0.39730134932533734,1342.8571428571427,96.96860838475166,33.73227989750448,
1771001188901.8147,-6.163043478260869,5.271739130434782,3.858695652173913,-9.117893476959903,3.1190903650508677,1.8312387791741471,4035.164835164835,1810.2564102564102,1.0,4.7197866013197025,211.87398593834504,-3.7709923664122136,1.66412213740458,0.0,-0.3088455772113943,-0.14392803598200898,-0.3988005997001499,1364.102564102564,96.97432469736702,33.73227989750448,
1771001188921.3467,-6.130434782608695,5.228260869565217,3.8369565217391304,-9.074805505685218,3.0712148414123277,1.8264512268102933,4030.7692307692305,1807.3260073260071,1.0,4.7197866013197025,211.87398593834504,-3.4045801526717554,1.3282442748091603,0.5954198473282443,-0.3058470764617691,-0.13793103448275862,-0.4017991004497751,1368.4981684981683,96.97432469736702,33.73227989750448,
1771001188940.879,-6.119565217391304,5.217391304347826,3.8260869565217392,-9.055655296229803,3.0712148414123277,1.8312387791741471,4011.721611721611,1772.8937728937728,1.0,4.7197866013197025,211.87398593834504,-2.8702290076335877,1.2213740458015268,0.07633587786259542,-0.3118440779610195,-0.13343328335832083,-0.40629685157421286,1367.7655677655678,96.96575023267216,33.73227989750448,
1771001188960.4106,-6.08695652173913,5.228260869565217,3.8152173913043477,-9.026929982046678,3.0592459605026927,1.7857570317175344,4036.6300366300366,1805.8608058608058,1.0,4.7197866013197025,211.87398593834504,-2.5038167938931295,0.732824427480916,0.183206106870229,-0.3058470764617691,-0.13343328335832083,-0.40629685157421286,1359.7069597069597,96.97146653964995,33.73227989750448,
1771001188979.9426,-6.130434782608695,5.25,3.8369565217391304,-9.029323758228605,3.054458408138839,1.8049072411729503,4036.6300366300366,1815.3846153846152,1.0,4.7197866013197025,211.87398593834504,-2.610687022900763,0.6870229007633587,-0.7633587786259541,-0.3088455772113943,-0.136431784107946,-0.4002998500749625,1332.6007326007325,96.96860838475166,33.73227989750448,
1771001188999.4744,-6.130434782608695,5.228260869565217,3.782608695652174,-9.07241172950329,3.08557749850389,1.7570317175344106,4027.8388278388275,1800.7326007326005,1.0,4.7197866013197025,211.87398593834504,-2.16793893129771,1.3893129770992365,-0.8091603053435115,-0.3058470764617691,-0.13793103448275862,-0.39730134932533734,1313.5531135531135,96.96575023267216,33.73227989750448,
1771001189019.0063,-6.119565217391304,5.25,3.760869565217391,-9.060442848593656,3.0999401555954518,1.7187312986235788,4036.6300366300366,1813.9194139194137,1.0,4.7197866013197025,211.87398593834504,-2.1374045801526718,1.5419847328244274,-1.2671755725190839,-0.3073463268365817,-0.15442278860569714,-0.4002998500749625,1309.89010989011,96.97432469736702,33.73227989750448,
1771001189038.5383,-6.130434782608695,5.271739130434782,3.7391304347826084,-9.058049072411729,3.104727707959306,1.7163375224416517,4035.164835164835,1810.989010989011,1.0,4.7197866013197025,211.87398593834504,-2.1068702290076335,1.099236641221374,-1.297709923664122,-0.3043478260869565,-0.14692653673163417,-0.39730134932533734,1305.4945054945053,96.96289208341148,33.73227989750448,
1771001189058.0703,-6.141304347826087,5.260869565217392,3.7391304347826084,-9.067624177139438,3.1190903650508677,1.6971873129862358,4035.164835164835,1809.5238095238094,1.0,4.7197866013197025,211.87398593834504,-1.8931297709923662,1.0381679389312977,-1.2671755725190839,-0.29985007496251875,-0.13343328335832083,-0.39280359820089955,1304.0293040293038,96.96860838475166,33.73227989750448,
1771001189077.6023,-6.108695652173913,5.315217391304348,3.75,-9.074805505685218,3.1310592459605027,1.7163375224416517,4036.6300366300366,1816.117216117216,1.0,4.7197866013197025,211.87398593834504,-2.381679389312977,1.083969465648855,-1.1908396946564885,-0.3088455772113943,-0.136431784107946,-0.40629685157421286,1292.3076923076922,96.96575023267216,33.73227989750448,
1771001189097.1345,-6.239130434782608,5.293478260869565,3.75,-9.105924596050269,3.1502094554159186,1.7330939557151406,4011.721611721611,1775.091575091575,1.0,4.7146813697336345,212.10341093665403,-2.8702290076335877,1.0534351145038168,-1.4809160305343512,-0.3058470764617691,-0.13043478260869565,-0.4017991004497751,1278.3882783882782,96.97432469736702,33.73227989750448,
1771001189116.6665,-6.206521739130435,5.315217391304348,3.7391304347826084,-9.187312986235787,3.1573907839616995,1.6900059844404547,4036.6300366300366,1806.5934065934064,1.0,4.7197866013197025,211.87398593834504,-3.3893129770992365,0.7480916030534351,-1.0381679389312977,-0.3088455772113943,-0.12593703148425786,-0.4017991004497751,1268.131868131868,96.96575023267216,33.73227989750448,
1771001189136.1982,-6.1521739130434785,5.304347826086956,3.793478260869565,-9.086774386594854,3.1478156792339917,1.6900059844404547,4036.6300366300366,1815.3846153846152,1.0,4.7146813697336345,212.10341093665403,-3.450381679389313,-0.07633587786259542,-1.4809160305343512,-0.3058470764617691,-0.1409295352323838,-0.3913043478260869,1263.003663003663,96.96860838475166,33.73227989750448,
1771001189155.7302,-6.206521739130435,5.293478260869565,3.6956521739130435,-9.134649910233392,3.1645721125074804,1.7139437462597247,4027.8388278388275,1801.4652014652013,1.0,4.7146813697336345,212.10341093665403,-3.6488549618320607,0.33587786259541985,-0.8702290076335878,-0.3043478260869565,-0.14392803598200898,-0.3988005997001499,1263.003663003663,96.96575023267216,33.73227989750448,
1771001189175.2622,-6.130434782608695,5.293478260869565,3.7282608695652173,-9.103530819868341,3.1262716935966486,1.6732495511669658,4008.7912087912086,1764.102564102564,1.0,4.7146813697336345,212.10341093665403,-3.465648854961832,0.33587786259541985,-0.8854961832061068,-0.29985007496251875,-0.1454272863568216,-0.39730134932533734,1266.6666666666665,96.96289208341148,33.73227989750448,
1771001189194.7942,-6.08695652173913,5.293478260869565,3.7391304347826084,-9.029323758228605,3.1214841412327945,1.7019748653500897,4036.6300366300366,1803.6630036630036,1.0,4.7146813697336345,212.10341093665403,-3.541984732824427,0.04580152671755725,-0.8702290076335878,-0.3043478260869565,-0.13043478260869565,-0.4047976011994003,1279.8534798534797,96.9771828579029,33.73227989750448,
1771001189214.3262,-6.1521739130434785,5.271739130434782,3.7282608695652173,-9.058049072411729,3.104727707959306,1.7067624177139438,4035.164835164835,1808.058608058608,1.0,4.7146813697336345,212.10341093665403,-3.5725190839694654,0.030534351145038167,-0.9923664122137404,-0.3073463268365817,-0.15292353823088456,-0.38530734632683655,1299.6336996336995,96.97146653964995,33.73227989750448,
1771001189233.8582,-6.1521739130434785,5.260869565217392,3.7391304347826084,-9.050867743865949,3.1190903650508677,1.7139437462597247,4035.164835164835,1810.2564102564102,1.0,4.7146813697336345,212.10341093665403,-3.83206106870229,-0.16793893129770993,-1.465648854961832,-0.3118440779610195,-0.1424287856071964,-0.39430284857571213,1315.018315018315,96.97432469736702,33.73227989750448,
1771001189253.39,-6.141304347826087,5.184782608695652,3.75,-9.06523040095751,3.042489527229204,1.7115499700777976,4011.721611721611,1773.6263736263736,1.0,4.7146813697336345,212.10341093665403,-4.229007633587786,-0.5190839694656488,-1.83206106870229,-0.3148425787106447,-0.13193403298350825,-0.4047976011994003,1309.89010989011,96.96860838475166,33.73227989750448,
1771001189272.922,-6.141304347826087,5.195652173913043,3.760869565217391,-9.053261520047876,3.023339317773788,1.7283064033512867,4035.164835164835,1799.2673992673992,1.0,4.7146813697336345,212.10341093665403,-4.091603053435114,-0.32061068702290074,-1.8778625954198473,-0.30134932533733133,-0.12443778110944527,-0.38980509745127434,1296.7032967032967,96.9771828579029,33.73227989750448,
1771001189292.454,-6.130434782608695,5.206521739130435,3.6956521739130435,-9.070017953321365,3.01376421304608,1.6876122082585279,4035.164835164835,1808.058608058608,1.0,4.7197866013197025,211.87398593834504,-4.183206106870228,-0.6564885496183206,-1.816793893129771,-0.29985007496251875,-0.10944527736131934,-0.39430284857571213,1290.10989010989,96.97146653964995,33.73227989750448,
1771001189311.986,-6.076086956521739,5.217391304347826,3.641304347826087,-8.995810891681627,3.032914422501496,1.6038300418910831,4026.373626373626,1791.9413919413919,1.0,4.7146813697336345,212.10341093665403,-3.9541984732824424,-0.7175572519083969,-2.1221374045801524,-0.3043478260869565,-0.13793103448275862,-0.4077961019490255,1289.3772893772893,96.96575023267216,33.73227989750448,
1771001189331.518,-6.119565217391304,5.25,3.6956521739130435,-9.007779772591263,3.0592459605026927,1.632555356074207,4035.164835164835,1805.128205128205,1.0,4.7146813697336345,212.10341093665403,-4.229007633587786,-1.2213740458015268,-3.0839694656488548,-0.2983508245877061,-0.15142428785607195,-0.39280359820089955,1297.4358974358975,96.97146653964995,33.73227989750448,
1771001189351.05,-6.293478260869565,5.260869565217392,3.717391304347826,-9.18491921005386,3.087971274685817,1.6732495511669658,4035.164835164835,1808.7912087912086,1.0,4.7146813697336345,212.10341093665403,-5.343511450381679,-0.6106870229007634,-3.3435114503816794,-0.29985007496251875,-0.15142428785607195,-0.4032983508245877,1315.7509157509157,96.96575023267216,33.73227989750448,
1771001189370.582,-6.369565217391304,5.282608695652174,3.793478260869565,-9.297426690604429,3.1023339317773786,1.7498503889886294,4033.6996336996335,1809.5238095238094,1.0,4.7146813697336345,212.10341093665403,-5.709923664122138,-0.7938931297709924,-2.33587786259542,-0.29685157421289354,-0.14392803598200898,-0.40629685157421286,1367.032967032967,96.96575023267216,33.73227989750448,
1771001189390.114,-6.304347826086956,5.315217391304348,3.8043478260869565,-9.285457809694794,3.1454219030520645,1.7474566128067026,4035.164835164835,1810.2564102564102,1.0,4.7146813697336345,212.10341093665403,-5.175572519083969,-0.9770992366412213,-1.7251908396946565,-0.3043478260869565,-0.136431784107946,-0.4002998500749625,1446.8864468864467,96.96575023267216,33.73227989750448,
1771001189409.6458,-6.173913043478261,5.358695652173913,3.782608695652174,-9.156193895870736,3.2124476361460204,1.7474566128067026,4010.25641025641,1772.8937728937728,1.0,4.7146813697336345,212.10341093665403,-4.748091603053435,-1.114503816793893,-1.9389312977099236,-0.3193403298350824,-0.13343328335832083,-0.3958020989505247,1548.7179487179485,96.9771828579029,33.73227989750448,
1771001189429.1775,-6.1521739130434785,5.423913043478261,3.793478260869565,-9.08916816277678,3.272292040694195,1.7474566128067026,4035.164835164835,1799.9999999999998,1.0,4.7146813697336345,212.10341093665403,-4.137404580152672,-0.030534351145038167,-1.4961832061068703,-0.3043478260869565,-0.136431784107946,-0.4047976011994003,1649.8168498168498,96.9771828579029,33.73227989750448,
1771001189448.7097,-6.217391304347826,5.380434782608695,3.7391304347826084,-9.182525433871932,3.233991621783363,1.7019748653500897,4035.164835164835,1813.9194139194137,1.0,4.7146813697336345,212.10341093665403,-3.450381679389313,0.2900763358778626,-1.2519083969465647,-0.3058470764617691,-0.13343328335832083,-0.4002998500749625,1717.9487179487178,96.97146653964995,33.73227989750448,
1771001189468.2417,-6.173913043478261,5.4021739130434785,3.7391304347826084,-9.12986235786954,3.250748055056852,1.6971873129862358,4026.373626373626,1794.139194139194,1.0,4.7146813697336345,212.10341093665403,-3.0076335877862594,-0.5190839694656488,-1.083969465648855,-0.3088455772113943,-0.1424287856071964,-0.4047976011994003,1732.6007326007325,96.97146653964995,33.73227989750448,
1771001189487.7737,-6.184782608695652,5.391304347826087,3.7717391304347827,-9.141831238779174,3.2315978456014363,1.7330939557151406,4035.164835164835,1805.8608058608058,1.0,4.7146813697336345,212.10341093665403,-2.1221374045801524,0.061068702290076333,-0.10687022900763359,-0.30134932533733133,-0.1424287856071964,-0.40629685157421286,1695.970695970696,96.96003393696955,33.73227989750448,
1771001189507.3057,-6.25,5.358695652173913,3.760869565217391,-9.175344105326152,3.2363853979652903,1.7043686415320167,4035.164835164835,1809.5238095238094,1.0,4.7146813697336345,212.10341093665403,-1.297709923664122,0.6106870229007634,0.2900763358778626,-0.3028485757121439,-0.1409295352323838,-0.4017991004497751,1619.7802197802196,96.96860838475166,33.73227989750448,
1771001189526.8376,-6.141304347826087,5.369565217391304,3.7282608695652173,-9.127468581687612,3.214841412327947,1.7067624177139438,4036.6300366300366,1815.3846153846152,1.0,4.7146813697336345,212.10341093665403,-0.5954198473282443,-0.04580152671755725,0.1984732824427481,-0.3028485757121439,-0.14392803598200898,-0.39730134932533734,1528.2051282051282,96.97146653964995,33.73227989750448,
1771001189546.3696,-6.119565217391304,5.33695652173913,3.782608695652174,-9.026929982046678,3.2004787552363854,1.7259126271693597,4036.6300366300366,1818.3150183150183,1.0,4.7146813697336345,212.10341093665403,-0.2748091603053435,0.47328244274809156,0.8396946564885496,-0.31334332833583206,-0.13193403298350825,-0.40629685157421286,1426.3736263736262,96.96860838475166,33.73227989750448,
1771001189565.9016,-6.217391304347826,5.33695652173913,3.8043478260869565,-9.117893476959903,3.1932974266906045,1.7642130460801915,4011.721611721611,1775.8241758241757,1.0,4.7146813697336345,212.10341093665403,0.5343511450381679,0.7633587786259541,0.42748091603053434,-0.3043478260869565,-0.1394302848575712,-0.39430284857571213,1342.8571428571427,96.97146653964995,33.73227989750448,
1771001189585.4336,-6.195652173913043,5.304347826086956,3.793478260869565,-9.132256134051467,3.1430281268701377,1.7522441651705565,4036.6300366300366,1806.5934065934064,1.0,4.7146813697336345,212.10341093665403,0.6717557251908397,-0.3969465648854962,0.07633587786259542,-0.3088455772113943,-0.13493253373313344,-0.39280359820089955,1294.5054945054944,96.97146653964995,33.73227989750448,
1771001189604.9656,-6.108695652173913,5.260869565217392,3.7391304347826084,-9.084380610412927,3.1262716935966486,1.7354877318970676,4036.6300366300366,1815.3846153846152,1.0,4.7146813697336345,212.10341093665403,0.916030534351145,-0.32061068702290074,0.33587786259541985,-0.3103448275862069,-0.14392803598200898,-0.40929535232383807,1286.4468864468863,96.97146653964995,33.73227989750448,
1771001189624.4976,-6.076086956521739,5.271739130434782,3.75,-9.012567324955116,3.104727707959306,1.7139437462597247,4026.373626373626,1794.8717948717947,1.0,4.7146813697336345,212.10341093665403,1.4351145038167938,-0.15267175572519084,-0.2595419847328244,-0.3058470764617691,-0.1424287856071964,-0.39280359820089955,1302.5641025641025,96.9771828579029,33.73227989750448,
1771001189644.0295,-6.076086956521739,5.260869565217392,3.7391304347826084,-9.002992220227409,3.1095152603231595,1.7139437462597247,4035.164835164835,1805.8608058608058,1.0,4.7146813697336345,212.10341093665403,1.6030534351145038,-0.3969465648854962,-0.47328244274809156,-0.3058470764617691,-0.14992503748125938,-0.4002998500749625,1337.7289377289376,96.97146653964995,33.73227989750448,
1771001189663.5615,-6.0978260869565215,5.293478260869565,3.7065217391304346,-8.993417115499701,3.128665469778576,1.7115499700777976,4036.6300366300366,1815.3846153846152,1.0,4.7146813697336345,212.10341093665403,2.0,-0.4427480916030534,-1.3740458015267174,-0.30134932533733133,-0.15292353823088456,-0.4002998500749625,1374.3589743589744,96.96860838475166,33.73227989750448,
1771001189683.0935,-6.076086956521739,5.315217391304348,3.6956521739130435,-8.993417115499701,3.1406343506882104,1.646918013165769,4035.164835164835,1810.989010989011,1.0,4.7146813697336345,212.10341093665403,1.5725190839694656,-0.7633587786259541,-2.2900763358778624,-0.3088455772113943,-0.15292353823088456,-0.40629685157421286,1405.128205128205,96.97432469736702,33.73227989750448,
1771001189702.6255,-6.141304347826087,5.304347826086956,3.684782608695652,-9.050867743865949,3.1645721125074804,1.644524236983842,4035.164835164835,1810.2564102564102,1.0,4.7146813697336345,212.10341093665403,1.7099236641221374,-0.183206106870229,-2.2748091603053435,-0.3103448275862069,-0.13493253373313344,-0.38830584707646176,1417.5824175824175,96.97146653964995,33.73227989750448,
1771001189722.1577,-6.184782608695652,5.315217391304348,3.7065217391304346,-9.103530819868341,3.1669658886894076,1.6636744464392579,4020.5128205128203,1783.8827838827838,1.0,4.7146813697336345,212.10341093665403,1.7251908396946565,-0.33587786259541985,-2.4580152671755724,-0.3118440779610195,-0.13793103448275862,-0.38830584707646176,1419.047619047619,96.96575023267216,33.73227989750448,
1771001189741.6897,-6.195652173913043,5.391304347826087,3.7065217391304346,-9.132256134051467,3.1932974266906045,1.658886894075404,4035.164835164835,1802.9304029304028,1.0,4.7146813697336345,212.10341093665403,1.9389312977099236,-0.6717557251908397,-2.427480916030534,-0.3073463268365817,-0.12743628185907047,-0.4017991004497751,1399.2673992673992,96.97146653964995,33.73227989750448,
1771001189761.2214,-6.130434782608695,5.391304347826087,3.684782608695652,-9.077199281867145,3.241172950329144,1.6756433273488929,4035.164835164835,1808.058608058608,1.0,4.7146813697336345,212.10341093665403,2.1221374045801524,-1.6793893129770991,-2.381679389312977,-0.3073463268365817,-0.1169415292353823,-0.40629685157421286,1362.6373626373625,96.97146653964995,33.73227989750448,
1771001189780.7534,-6.054347826086956,5.456521739130435,3.717391304347826,-8.974266906044285,3.293836026331538,1.6756433273488929,4026.373626373626,1793.4065934065932,1.0,4.7146813697336345,212.10341093665403,2.564885496183206,-1.2366412213740459,-1.9694656488549618,-0.3073463268365817,-0.13793103448275862,-0.3868065967016492,1336.9963369963368,96.97146653964995,33.73227989750448,
1771001189800.2854,-6.0978260869565215,5.478260869565217,3.782608695652174,-8.991023339317774,3.3345302214242967,1.7307001795332135,4036.6300366300366,1811.7216117216117,1.0,4.709576138147567,212.33333333333331,3.450381679389313,-1.099236641221374,-1.9694656488549618,-0.29985007496251875,-0.1424287856071964,-0.39730134932533734,1322.3443223443223,96.96575023267216,33.73227989750448,
1771001189819.8174,-6.08695652173913,5.5,3.793478260869565,-9.038898862956314,3.3512866546977857,1.7666068222621185,4036.6300366300366,1816.8498168498168,1.0,4.7146813697336345,212.10341093665403,4.137404580152672,-1.6793893129770991,-2.16793893129771,-0.29535232383808097,-0.13043478260869565,-0.4047976011994003,1305.4945054945053,96.96575023267216,33.73227989750448,
1771001189839.349,-6.065217391304348,5.489130434782608,3.793478260869565,-9.000598444045481,3.3847995212447635,1.7450628366247756,4035.164835164835,1811.7216117216117,1.0,4.709576138147567,212.33333333333331,4.6106870229007635,-2.519083969465649,-2.1526717557251906,-0.2983508245877061,-0.1409295352323838,-0.38080959520239877,1284.9816849816848,96.96289208341148,33.73227989750448,
1771001189858.881,-6.130434782608695,5.434782608695652,3.8043478260869565,-9.050867743865949,3.305804907241173,1.7642130460801915,4035.164835164835,1810.2564102564102,1.0,4.7146813697336345,212.10341093665403,5.49618320610687,-2.0,-1.8473282442748091,-0.3073463268365817,-0.1409295352323838,-0.3913043478260869,1269.5970695970695,96.97146653964995,33.73227989750448,
1771001189878.413,-6.206521739130435,5.326086956521739,3.7717391304347827,-9.108318372232196,3.2004787552363854,1.7187312986235788,4020.5128205128203,1783.8827838827838,1.0,4.7146813697336345,212.10341093665403,5.801526717557252,-2.183206106870229,-1.8015267175572518,-0.3028485757121439,-0.13793103448275862,-0.3823088455772114,1267.3992673992673,96.96575023267216,33.73227989750448,
1771001189897.945,-6.1521739130434785,5.315217391304348,3.760869565217391,-9.084380610412927,3.1526032315978454,1.7163375224416517,4035.164835164835,1802.9304029304028,1.0,4.7146813697336345,212.10341093665403,5.740458015267175,-2.748091603053435,-0.8244274809160305,-0.3058470764617691,-0.13793103448275862,-0.39280359820089955,1276.1904761904761,96.96003393696955,33.73227989750448,
1771001189917.477,-6.141304347826087,5.326086956521739,3.7282608695652173,-9.079593058049072,3.190903650508677,1.6804308797127467,4035.164835164835,1808.058608058608,1.0,4.709576138147567,212.33333333333331,5.969465648854961,-2.9923664122137406,-0.9312977099236641,-0.3073463268365817,-0.1424287856071964,-0.38830584707646176,1293.7728937728937,96.96860838475166,33.73227989750448,
1771001189937.009,-6.054347826086956,5.33695652173913,3.6956521739130435,-9.005385996409336,3.1932974266906045,1.6947935368043088,4026.373626373626,1793.4065934065932,1.0,4.7146813697336345,212.10341093665403,5.007633587786259,-3.5267175572519083,-1.5725190839694656,-0.3103448275862069,-0.1169415292353823,-0.3868065967016492,1304.7619047619046,96.96575023267216,33.73227989750448,
1771001189956.541,-6.130434782608695,5.304347826086956,3.6956521739130435,-9.010173548773189,3.1813285457809695,1.67803710353082,4035.164835164835,1805.128205128205,1.0,4.709576138147567,212.33333333333331,4.900763358778626,-2.4732824427480917,-1.4809160305343512,-0.3088455772113943,-0.14992503748125938,-0.3958020989505247,1313.5531135531135,96.97432469736702,33.73227989750448,
1771001189976.073,-6.184782608695652,5.326086956521739,3.6739130434782608,-9.105924596050269,3.1621783363255536,1.6493117893476958,4035.164835164835,1808.7912087912086,1.0,4.7146813697336345,212.10341093665403,3.8931297709923665,-3.2213740458015265,-2.381679389312977,-0.3058470764617691,-0.14692653673163417,-0.3793103448275862,1324.5421245421244,96.96860838475166,33.73227989750448,
1771001189995.605,-6.0978260869565215,5.304347826086956,3.7065217391304346,-9.077199281867145,3.1813285457809695,1.637342908438061,4033.6996336996335,1808.7912087912086,1.0,4.7146813697336345,212.10341093665403,3.3587786259541983,-4.290076335877862,-3.2671755725190836,-0.3058470764617691,-0.13493253373313344,-0.39430284857571213,1321.6117216117216,96.97146653964995,33.73227989750448,
1771001190015.137,-6.108695652173913,5.3478260869565215,3.717391304347826,-9.012567324955116,3.1837223219628963,1.6828246558946738,4035.164835164835,1809.5238095238094,1.0,4.7146813697336345,212.10341093665403,2.9923664122137406,-3.969465648854962,-3.877862595419847,-0.3088455772113943,-0.1394302848575712,-0.38830584707646176,1309.89010989011,96.96575023267216,33.73227989750448,
1771001190034.669,-6.0978260869565215,5.380434782608695,3.717391304347826,-9.024536205864752,3.210053859964093,1.668461998803112,4010.25641025641,1772.8937728937728,1.0,4.7146813697336345,212.10341093665403,3.099236641221374,-4.030534351145038,-3.969465648854962,-0.3058470764617691,-0.14392803598200898,-0.37631184407796103,1297.4358974358975,96.96575023267216,33.73227989750448,
1771001190054.201,-6.08695652173913,5.434782608695652,3.717391304347826,-9.03411131059246,3.269898264512268,1.6828246558946738,4035.164835164835,1799.9999999999998,1.0,4.709576138147567,212.33333333333331,3.7404580152671754,-4.030534351145038,-3.9847328244274807,-0.31334332833583206,-0.13793103448275862,-0.3913043478260869,1280.5860805860805,96.97146653964995,33.73227989750448,
1771001190073.733,-6.08695652173913,5.456521739130435,3.684782608695652,-9.024536205864752,3.28426092160383,1.6804308797127467,4035.164835164835,1807.3260073260071,1.0,4.709576138147567,212.33333333333331,3.8625954198473282,-3.1908396946564883,-4.229007633587786,-0.3088455772113943,-0.13343328335832083,-0.38980509745127434,1268.8644688644688,96.97146653964995,33.73227989750448,
1771001190093.265,-6.119565217391304,5.510869565217392,3.75,-9.048473967684021,3.3345302214242967,1.7259126271693597,4026.373626373626,1792.6739926739926,1.0,4.709576138147567,212.33333333333331,4.198473282442748,-1.7557251908396947,-4.152671755725191,-0.3118440779610195,-0.15142428785607195,-0.3868065967016492,1271.7948717948716,96.96575023267216,33.73227989750448,
1771001190112.7969,-6.108695652173913,5.532608695652174,3.8260869565217392,-9.053261520047876,3.3776181926989826,1.7666068222621185,4007.326007326007,1766.3003663003662,1.0,4.709576138147567,212.33333333333331,4.351145038167939,-1.7709923664122136,-3.9083969465648853,-0.30134932533733133,-0.15442278860569714,-0.3793103448275862,1300.3663003663003,96.96860838475166,33.73227989750448,
1771001190132.3289,-6.076086956521739,5.489130434782608,3.891304347826087,-9.007779772591263,3.3704368641532017,1.862357869539198,4035.164835164835,1797.8021978021977,1.0,4.709576138147567,212.33333333333331,4.595419847328244,-1.7557251908396947,-3.1908396946564883,-0.3058470764617691,-0.15142428785607195,-0.383808095952024,1361.904761904762,96.96575023267216,33.73227989750448,
1771001190151.8608,-6.076086956521739,5.434782608695652,3.9456521739130435,-9.007779772591263,3.317773788150808,1.9317773788150807,4035.164835164835,1806.5934065934064,1.0,4.709576138147567,212.33333333333331,5.0534351145038165,-1.83206106870229,-2.9618320610687023,-0.31634182908545727,-0.15442278860569714,-0.3823088455772114,1460.8058608058607,96.97432469736702,33.73227989750448,
1771001190171.3928,-6.08695652173913,5.413043478260869,3.9130434782608696,-8.993417115499701,3.250748055056852,1.9245960502692998,4035.164835164835,1809.5238095238094,1.0,4.709576138147567,212.33333333333331,5.083969465648854,-2.8854961832061066,-3.0839694656488548,-0.3073463268365817,-0.13793103448275862,-0.383808095952024,1582.4175824175823,96.96575023267216,33.73227989750448,
1771001190190.9248,-6.108695652173913,5.369565217391304,3.8152173913043477,-9.03411131059246,3.229204069419509,1.840813883901855,4026.373626373626,1793.4065934065932,1.0,4.709576138147567,212.33333333333331,5.236641221374046,-2.763358778625954,-2.8244274809160306,-0.3073463268365817,-0.136431784107946,-0.39280359820089955,1694.5054945054944,96.97146653964995,33.73227989750448,
1771001190210.4568,-6.228260869565217,5.33695652173913,3.782608695652174,-9.139437462597247,3.1741472172351886,1.7618192698982644,4036.6300366300366,1811.7216117216117,1.0,4.709576138147567,212.33333333333331,4.625954198473282,-2.9618320610687023,-3.1908396946564883,-0.3088455772113943,-0.15442278860569714,-0.3868065967016492,1769.230769230769,96.96860838475166,33.73227989750448,
1771001190229.9888,-6.239130434782608,5.304347826086956,3.75,-9.196888090963494,3.1406343506882104,1.6947935368043088,4036.6300366300366,1816.117216117216,1.0,4.709576138147567,212.33333333333331,3.8625954198473282,-2.900763358778626,-3.114503816793893,-0.3118440779610195,-0.1409295352323838,-0.38530734632683655,1786.080586080586,96.96860838475166,33.73227989750448,
1771001190249.5205,-6.25,5.282608695652174,3.717391304347826,-9.180131657690005,3.1406343506882104,1.656493117893477,4026.373626373626,1795.6043956043954,1.0,4.709576138147567,212.33333333333331,3.1908396946564883,-2.229007633587786,-3.099236641221374,-0.3043478260869565,-0.1454272863568216,-0.3733133433283358,1739.9267399267399,96.96575023267216,33.73227989750448,
1771001190269.0525,-6.206521739130435,5.304347826086956,3.6956521739130435,-9.153800119688809,3.128665469778576,1.632555356074207,4036.6300366300366,1812.4542124542124,1.0,4.709576138147567,212.33333333333331,2.259541984732824,-2.198473282442748,-2.748091603053435,-0.2983508245877061,-0.15442278860569714,-0.383808095952024,1642.4908424908424,96.96575023267216,33.73227989750448,
1771001190288.5845,-6.065217391304348,5.33695652173913,3.684782608695652,-9.014961101137043,3.1597845601436263,1.63016157989228,4035.164835164835,1810.989010989011,1.0,4.709576138147567,212.33333333333331,1.2671755725190839,-2.381679389312977,-3.2519083969465647,-0.3073463268365817,-0.13343328335832083,-0.3748125937031484,1547.2527472527472,96.96575023267216,33.73227989750448,
1771001190308.1165,-6.1521739130434785,5.326086956521739,3.7391304347826084,-9.062836624775583,3.1717534410532613,1.6852184320766008,4035.164835164835,1810.2564102564102,1.0,4.709576138147567,212.33333333333331,0.4580152671755725,-0.8702290076335878,-2.8702290076335877,-0.3028485757121439,-0.15292353823088456,-0.3703148425787106,1463.003663003663,96.96575023267216,33.73227989750448,
1771001190327.6484,-6.239130434782608,5.315217391304348,3.760869565217391,-9.192100538599641,3.1406343506882104,1.7067624177139438,4035.164835164835,1810.2564102564102,1.0,4.709576138147567,212.33333333333331,0.0,-0.16793893129770993,-3.3435114503816794,-0.3073463268365817,-0.14692653673163417,-0.3778110944527736,1391.9413919413919,96.97146653964995,33.73227989750448,
1771001190347.1804,-6.217391304347826,5.304347826086956,3.717391304347826,-9.206463195691203,3.1454219030520645,1.6947935368043088,4027.8388278388275,1800.7326007326005,1.0,4.709576138147567,212.33333333333331,-0.9007633587786259,0.07633587786259542,-2.900763358778626,-0.3103448275862069,-0.1454272863568216,-0.3703148425787106,1355.3113553113553,96.96860838475166,33.73227989750448,
1771001190366.7124,-6.0978260869565215,5.304347826086956,3.717391304347826,-9.029323758228605,3.1214841412327945,1.7019748653500897,4035.164835164835,1807.3260073260071,1.0,4.709576138147567,212.33333333333331,-1.9083969465648853,-0.15267175572519084,-2.5343511450381677,-0.3118440779610195,-0.14692653673163417,-0.37181409295352325,1353.113553113553,96.97146653964995,33.73227989750448,
1771001190386.2444,-6.010869565217392,5.304347826086956,3.75,-8.974266906044285,3.1621783363255536,1.6995810891681626,4035.164835164835,1809.5238095238094,1.0,4.709576138147567,212.33333333333331,-2.351145038167939,0.1984732824427481,-2.2748091603053435,-0.30134932533733133,-0.14692653673163417,-0.38980509745127434,1378.021978021978,96.97146653964995,33.73227989750448,
1771001190405.7764,-6.130434782608695,5.293478260869565,3.8152173913043477,-9.019748653500898,3.104727707959306,1.7570317175344106,4026.373626373626,1793.4065934065932,1.0,4.709576138147567,212.33333333333331,-3.5725190839694654,1.0381679389312977,-1.4809160305343512,-0.3043478260869565,-0.1454272863568216,-0.3778110944527736,1422.7106227106226,96.96860838475166,33.73227989750448,
1771001190425.3083,-6.119565217391304,5.260869565217392,3.8260869565217392,-9.081986834231,3.1190903650508677,1.7594254937163374,4008.7912087912086,1761.9047619047617,1.0,4.709576138147567,212.33333333333331,-4.67175572519084,0.549618320610687,-1.83206106870229,-0.3088455772113943,-0.12293853073463268,-0.3793103448275862,1467.3992673992673,96.96575023267216,33.73227989750448,
1771001190444.8403,-6.141304347826087,5.239130434782608,3.8043478260869565,-9.101137043686416,3.056852184320766,1.7761819269898265,4036.6300366300366,1796.3369963369962,1.0,4.709576138147567,212.33333333333331,-5.312977099236641,0.4580152671755725,-2.0763358778625953,-0.3088455772113943,-0.14842578710644677,-0.3778110944527736,1495.970695970696,96.96860838475166,33.73227989750448,
1771001190464.3723,-6.0978260869565215,5.195652173913043,3.793478260869565,-9.014961101137043,3.078396169958109,1.7642130460801915,4035.164835164835,1805.8608058608058,1.0,4.709576138147567,212.33333333333331,-6.595419847328244,0.549618320610687,-2.2442748091603053,-0.30134932533733133,-0.15892053973013492,-0.3823088455772114,1503.2967032967033,96.97432469736702,33.73227989750448,
1771001190483.9043,-6.119565217391304,5.206521739130435,3.782608695652174,-9.060442848593656,3.052064631956912,1.7546379413524835,4036.6300366300366,1814.6520146520145,1.0,4.709576138147567,212.33333333333331,-6.870229007633587,1.297709923664122,-2.5038167938931295,-0.3043478260869565,-0.13793103448275862,-0.3748125937031484,1492.3076923076922,96.96860838475166,33.73227989750448,
1771001190503.4363,-6.141304347826087,5.228260869565217,3.8043478260869565,-9.096349491322561,3.0831837223219627,1.7713943746259724,4029.304029304029,1802.197802197802,1.0,4.709576138147567,212.33333333333331,-7.007633587786259,1.3129770992366412,-2.4427480916030535,-0.3103448275862069,-0.14992503748125938,-0.3823088455772114,1471.062271062271,96.96575023267216,33.73227989750448,
1771001190522.9685,-6.108695652173913,5.239130434782608,3.7391304347826084,-9.086774386594854,3.0831837223219627,1.7307001795332135,4035.164835164835,1808.058608058608,1.0,4.709576138147567,212.33333333333331,-7.435114503816793,1.5725190839694656,-2.6717557251908395,-0.3073463268365817,-0.1409295352323838,-0.38080959520239877,1450.5494505494505,96.96575023267216,33.73227989750448,
1771001190542.5002,-6.08695652173913,5.271739130434782,3.760869565217391,-9.036505086774387,3.116696588868941,1.7498503889886294,4035.164835164835,1809.5238095238094,1.0,4.709576138147567,212.33333333333331,-8.229007633587786,1.7404580152671756,-2.748091603053435,-0.31334332833583206,-0.12443778110944527,-0.3733133433283358,1426.3736263736262,96.96575023267216,33.73227989750448,
1771001190562.0322,-6.217391304347826,5.282608695652174,3.75,-9.122681029323758,3.1119090365050868,1.7067624177139438,4023.4432234432234,1791.2087912087911,1.0,4.709576138147567,212.33333333333331,-8.687022900763358,3.0229007633587783,-1.9236641221374045,-0.3118440779610195,-0.14842578710644677,-0.36731634182908546,1392.6739926739926,96.96860838475166,33.73227989750448,
1771001190581.5642,-6.206521739130435,5.293478260869565,3.760869565217391,-9.18491921005386,3.128665469778576,1.7163375224416517,4035.164835164835,1805.128205128205,1.0,4.709576138147567,212.33333333333331,-9.526717557251908,2.4122137404580153,-2.396946564885496,-0.3028485757121439,-0.15742128935532235,-0.3823088455772114,1366.3003663003662,96.96860838475166,33.73227989750448,
1771001190601.0962,-6.206521739130435,5.271739130434782,3.7391304347826084,-9.141831238779174,3.128665469778576,1.7067624177139438,4035.164835164835,1808.7912087912086,1.0,4.709576138147567,212.33333333333331,-9.98473282442748,2.7938931297709924,-1.4809160305343512,-0.3043478260869565,-0.15442278860569714,-0.3793103448275862,1345.7875457875457,96.97432469736702,33.73227989750448,
1771001190620.6282,-6.239130434782608,5.326086956521739,3.7391304347826084,-9.175344105326152,3.1573907839616995,1.6995810891681626,4033.6996336996335,1808.7912087912086,1.0,4.709576138147567,212.33333333333331,-10.702290076335878,3.2671755725190836,-0.9312977099236641,-0.3028485757121439,-0.15292353823088456,-0.38080959520239877,1336.9963369963368,96.97146653964995,33.73227989750448,
1771001190640.1602,-6.173913043478261,5.33695652173913,3.7282608695652173,-9.165769000598443,3.1741472172351886,1.6708557749850388,4035.164835164835,1809.5238095238094,1.0,4.709576138147567,212.33333333333331,-11.648854961832061,3.1755725190839694,-0.7938931297709924,-0.31634182908545727,-0.14842578710644677,-0.37631184407796103,1345.7875457875457,96.96289208341148,33.73227989750448,
1771001190659.692,-6.141304347826087,5.33695652173913,3.75,-9.101137043686416,3.1741472172351886,1.7091561938958706,4029.304029304029,1800.7326007326005,1.0,4.709576138147567,212.33333333333331,-12.198473282442748,3.236641221374046,-0.47328244274809156,-0.31334332833583206,-0.1424287856071964,-0.3868065967016492,1363.3699633699632,96.96575023267216,33.73227989750448,
1771001190679.224,-6.108695652173913,5.3478260869565215,3.7282608695652173,-9.03411131059246,3.1717534410532613,1.7235188509874326,4035.164835164835,1807.3260073260071,1.0,4.709576138147567,212.33333333333331,-13.068702290076335,3.114503816793893,-0.42748091603053434,-0.3043478260869565,-0.14992503748125938,-0.3793103448275862,1371.4285714285713,96.96575023267216,33.73227989750448,
1771001190698.756,-6.141304347826087,5.315217391304348,3.760869565217391,-9.074805505685218,3.1621783363255536,1.7211250748055056,4035.164835164835,1809.5238095238094,1.0,4.709576138147567,212.33333333333331,-13.725190839694656,3.3740458015267176,-0.5343511450381679,-0.3058470764617691,-0.1184407796101949,-0.38830584707646176,1375.8241758241757,96.97146653964995,33.73227989750448,
1771001190718.2878,-6.228260869565217,5.228260869565217,3.7717391304347827,-9.141831238779174,3.042489527229204,1.7713943746259724,4023.4432234432234,1791.9413919413919,1.0,4.709576138147567,212.33333333333331,-14.213740458015266,4.152671755725191,-0.549618320610687,-0.3073463268365817,-0.15292353823088456,-0.3823088455772114,1378.021978021978,96.97432469736702,33.73227989750448,
1771001190737.8198,-6.141304347826087,5.206521739130435,3.760869565217391,-9.12028725314183,3.035308198683423,1.7259126271693597,4036.6300366300366,1810.989010989011,1.0,4.709576138147567,212.33333333333331,-14.519083969465647,4.061068702290076,-0.8396946564885496,-0.3028485757121439,-0.13493253373313344,-0.383808095952024,1369.230769230769,96.97146653964995,33.73227989750448,
1771001190757.3518,-6.043478260869565,5.184782608695652,3.7717391304347827,-8.983842010771992,3.023339317773788,1.7283064033512867,4036.6300366300366,1816.8498168498168,1.0,4.709576138147567,212.33333333333331,-14.702290076335878,2.3664122137404577,-1.3740458015267174,-0.2983508245877061,-0.1634182908545727,-0.3778110944527736,1357.5091575091574,96.97146653964995,33.73227989750448,
1771001190776.8838,-5.978260869565217,5.173913043478261,3.6630434782608696,-8.909634949132256,3.011370436864153,1.639736684619988,4035.164835164835,1811.7216117216117,1.0,4.709576138147567,212.33333333333331,-15.190839694656487,3.297709923664122,-1.6030534351145038,-0.3073463268365817,-0.14992503748125938,-0.38830584707646176,1348.7179487179487,96.96860838475166,33.73227989750448,
1771001190796.4158,-6.021739130434782,5.195652173913043,3.6630434782608696,-8.933572710951525,3.011370436864153,1.625374027528426,4036.6300366300366,1816.8498168498168,1.0,4.709576138147567,212.33333333333331,-16.259541984732824,4.244274809160305,-2.2748091603053435,-0.2983508245877061,-0.14692653673163417,-0.38530734632683655,1361.1721611721612,96.96575023267216,33.73227989750448,
1771001190815.9478,-6.195652173913043,5.206521739130435,3.7717391304347827,-9.014961101137043,3.042489527229204,1.6995810891681626,4013.1868131868127,1781.6849816849815,1.0,4.709576138147567,212.33333333333331,-17.48091603053435,4.748091603053435,-2.595419847328244,-0.29985007496251875,-0.13343328335832083,-0.38530734632683655,1392.6739926739926,96.96575023267216,33.73227989750448,
1771001190835.4795,-6.293478260869565,5.25,3.869565217391304,-9.220825852782765,3.068821065230401,1.8264512268102933,4036.6300366300366,1808.7912087912086,1.0,4.709576138147567,212.33333333333331,-18.396946564885496,4.793893129770992,-2.748091603053435,-0.3103448275862069,-0.13493253373313344,-0.3958020989505247,1442.4908424908424,96.97146653964995,33.73227989750448,
1771001190855.0117,-6.195652173913043,5.304347826086956,3.9239130434782608,-9.20885697187313,3.1262716935966486,1.874326750448833,4036.6300366300366,1816.117216117216,1.0,4.709576138147567,212.33333333333331,-18.62595419847328,3.7557251908396947,-2.778625954198473,-0.3043478260869565,-0.13043478260869565,-0.3913043478260869,1517.9487179487178,96.97146653964995,33.73227989750448,
1771001190874.5437,-6.076086956521739,5.260869565217392,3.891304347826087,-9.050867743865949,3.1262716935966486,1.87672052663076,4021.978021978022,1791.9413919413919,1.0,4.709576138147567,212.33333333333331,-18.900763358778626,3.541984732824427,-2.916030534351145,-0.3103448275862069,-0.14842578710644677,-0.4002998500749625,1616.8498168498168,96.96860838475166,33.73227989750448,
1771001190894.0757,-6.130434782608695,5.260869565217392,3.8478260869565215,-9.04129263913824,3.0951526032315977,1.8384201077199283,4036.6300366300366,1811.7216117216117,1.0,4.709576138147567,212.33333333333331,-18.35114503816794,4.595419847328244,-2.549618320610687,-0.3028485757121439,-0.14392803598200898,-0.4002998500749625,1714.2857142857142,96.96860838475166,33.73227989750448,
1771001190913.6077,-6.163043478260869,5.25,3.8260869565217392,-9.122681029323758,3.097546379413525,1.8001196888090962,4036.6300366300366,1816.8498168498168,1.0,4.709576138147567,212.33333333333331,-18.671755725190838,4.488549618320611,-2.381679389312977,-0.3058470764617691,-0.14992503748125938,-0.38980509745127434,1800.7326007326005,96.96575023267216,33.73227989750448,
1771001190933.1396,-6.141304347826087,5.25,3.8478260869565215,-9.081986834231,3.1143028126870136,1.7977259126271694,4035.164835164835,1812.4542124542124,1.0,4.709576138147567,212.33333333333331,-18.259541984732824,3.465648854961832,-2.8854961832061066,-0.3058470764617691,-0.13193403298350825,-0.4017991004497751,1842.4908424908424,96.96289208341148,33.73227989750448,
1771001190952.6716,-6.1521739130434785,5.260869565217392,3.8369565217391304,-9.115499700777978,3.097546379413525,1.8120885697187312,4036.6300366300366,1816.8498168498168,1.0,4.709576138147567,212.33333333333331,-18.793893129770993,3.6488549618320607,-3.1908396946564883,-0.2983508245877061,-0.13043478260869565,-0.39730134932533734,1816.117216117216,96.96860838475166,33.73227989750448,
1771001190972.2036,-6.206521739130435,5.206521739130435,3.8260869565217392,-9.149012567324954,3.042489527229204,1.8216636744464392,4011.721611721611,1775.8241758241757,1.0,4.709576138147567,212.33333333333331,-18.549618320610687,4.290076335877862,-2.916030534351145,-0.3043478260869565,-0.1394302848575712,-0.39430284857571213,1758.974358974359,96.97146653964995,33.73227989750448,
1771001190991.7356,-6.173913043478261,5.206521739130435,3.8152173913043477,-9.149012567324954,3.047277079593058,1.7833632555356074,4036.6300366300366,1806.5934065934064,1.0,4.709576138147567,212.33333333333331,-18.80916030534351,3.679389312977099,-2.900763358778626,-0.3043478260869565,-0.1424287856071964,-0.39280359820089955,1673.9926739926739,96.96289208341148,33.73227989750448,
1771001191011.2676,-6.08695652173913,5.271739130434782,3.8152173913043477,-9.036505086774387,3.078396169958109,1.8025134649910233,4036.6300366300366,1815.3846153846152,1.0,4.709576138147567,212.33333333333331,-18.33587786259542,3.312977099236641,-3.0076335877862594,-0.3088455772113943,-0.13193403298350825,-0.3988005997001499,1569.9633699633698,96.96860838475166,33.73227989750448,
1771001191030.7996,-6.076086956521739,5.282608695652174,3.891304347826087,-8.976660682226212,3.1023339317773786,1.8312387791741471,4020.5128205128203,1785.3479853479853,1.0,4.709576138147567,212.33333333333331,-18.595419847328245,3.5877862595419847,-3.465648854961832,-0.31334332833583206,-0.13793103448275862,-0.4047976011994003,1476.923076923077,96.97146653964995,33.73227989750448,
1771001191050.3315,-6.130434782608695,5.184782608695652,3.9130434782608696,-9.081986834231,3.056852184320766,1.893476959904249,4036.6300366300366,1809.5238095238094,1.0,4.704470906561499,212.56375474769396,-18.412213740458014,3.969465648854962,-3.7251908396946565,-0.2983508245877061,-0.1394302848575712,-0.4047976011994003,1408.058608058608,96.97432469736702,33.73227989750448,
1771001191069.8635,-6.206521739130435,5.173913043478261,3.8804347826086953,-9.127468581687612,3.018551765409934,1.87672052663076,4036.6300366300366,1816.117216117216,1.0,4.709576138147567,212.33333333333331,-17.81679389312977,4.106870229007633,-3.633587786259542,-0.3028485757121439,-0.1409295352323838,-0.40629685157421286,1376.5567765567764,96.97146653964995,33.73227989750448,
1771001191089.3953,-6.163043478260869,5.141304347826087,3.8804347826086953,-9.12028725314183,2.9802513464991023,1.867145421903052,4035.164835164835,1811.7216117216117,1.0,4.704470906561499,212.56375474769396,-18.15267175572519,3.679389312977099,-3.7251908396946565,-0.3028485757121439,-0.13193403298350825,-0.39730134932533734,1378.7545787545787,96.96575023267216,33.73227989750448,
