Shimmer_A679_TimestampSync_Unix_CAL,Shimmer_A679_Accel_LN_X_CAL,Shimmer_A679_Accel_LN_Y_CAL,Shimmer_A679_Accel_LN_Z_CAL,Shimmer_A679_Accel_WR_X_CAL,Shimmer_A679_Accel_WR_Y_CAL,Shimmer_A679_Accel_WR_Z_CAL,Shimmer_A679_Battery_CAL,Shimmer_A679_Ext_Exp_A15_CAL,Shimmer_A679_GSR_Range_CAL,Shimmer_A679_GSR_Skin_Conductance_CAL,Shimmer_A679_GSR_Skin_Resistance_CAL,Shimmer_A679_Gyro_X_CAL,Shimmer_A679_Gyro_Y_CAL,Shimmer_A679_Gyro_Z_CAL,Shimmer_A679_Mag_X_CAL,Shimmer_A679_Mag_Y_CAL,Shimmer_A679_Mag_Z_CAL,Shimmer_A679_PPG_A13_CAL,Shimmer_A679_Pressure_BMP280_CAL,Shimmer_A679_Temperature_BMP280_CAL,Unnamed: 21
1771001482018.103,-1.608695652173913,-5.445652173913043,1.1521739130434783,-4.186714542190305,-8.78755236385398,-1.2351885098743267,4032.234432234432,1799.9999999999998,1.0,4.5972610432540755,217.5208217656857,-1.984732824427481,5.022900763358779,-2.4885496183206106,-0.3538230884557721,0.280359820089955,-0.4977511244377811,1438.8278388278388,96.98256213665204,34.4559041392291,
1771001482037.635,-1.6304347826086956,-5.478260869565217,1.1739130434782608,-4.186714542190305,-8.8426092160383,-1.2280071813285458,4032.234432234432,1799.2673992673992,1.0,4.602366274840143,217.27953410981695,-1.83206106870229,6.916030534351145,-2.595419847328244,-0.3448275862068965,0.272863568215892,-0.4962518740629685,1397.069597069597,96.9797007492755,34.4559041392291,
1771001482057.167,-1.6630434782608696,-5.5,1.1739130434782608,-4.256134051466188,-8.880909634949132,-1.2184320766008379,4008.7912087912086,1763.3699633699632,1.0,4.5972610432540755,217.5208217656857,-1.648854961832061,7.511450381679389,-3.1755725190839694,-0.3538230884557721,0.2818590704647676,-0.5037481259370314,1370.6959706959706,96.97683936472413,34.4559041392291,
1771001482076.699,-1.6630434782608696,-5.521739130434782,1.1956521739130435,-4.260921603830042,-8.904847396768401,-1.196888090963495,4005.8608058608056,1750.9157509157508,1.0,4.5972610432540755,217.5208217656857,-1.648854961832061,7.541984732824427,-3.49618320610687,-0.3493253373313343,0.27136431784107945,-0.5067466266866567,1354.5787545787546,96.97683936472413,34.4559041392291,
1771001482096.231,-1.6956521739130435,-5.510869565217392,1.2391304347826086,-4.284859365649312,-8.900059844404549,-1.18491921005386,4032.234432234432,1786.8131868131868,1.0,4.5972610432540755,217.5208217656857,-1.5572519083969465,7.816793893129771,-3.3587786259541983,-0.3493253373313343,0.2578710644677661,-0.505247376311844,1340.6593406593406,96.9739779829979,34.4559041392291,
1771001482115.763,-1.6739130434782608,-5.510869565217392,1.2173913043478262,-4.253740275284261,-8.885697187312987,-1.180131657690006,4021.978021978022,1783.8827838827838,1.0,4.5972610432540755,217.5208217656857,-1.2366412213740459,8.564885496183205,-2.9923664122137406,-0.3583208395802099,0.2593703148425787,-0.505247376311844,1323.8095238095236,96.97111660409682,34.4559041392291,
1771001482135.295,-1.6956521739130435,-5.478260869565217,1.1630434782608696,-4.282465589467384,-8.880909634949132,-1.2040694195092758,4032.234432234432,1795.6043956043954,1.0,4.5972610432540755,217.5208217656857,-0.6106870229007634,9.694656488549619,-3.16030534351145,-0.3523238380809595,0.280359820089955,-0.5142428785607196,1320.14652014652,96.98256213665204,34.4559041392291,
1771001482154.827,-1.7065217391304348,-5.521739130434782,1.2065217391304348,-4.289646918013165,-8.907241172950329,-1.199281867145422,4032.234432234432,1799.2673992673992,1.0,4.5972610432540755,217.5208217656857,-0.6412213740458015,10.885496183206106,-3.2519083969465647,-0.35082458770614694,0.27436281859070466,-0.5037481259370314,1326.7399267399267,96.97683936472413,34.4559041392291,
1771001482174.359,-1.7065217391304348,-5.456521739130435,1.1956521739130435,-4.31837223219629,-8.840215439856372,-1.163375224416517,4030.7692307692305,1804.3956043956043,1.0,4.5972610432540755,217.5208217656857,-0.8702290076335878,11.114503816793892,-3.465648854961832,-0.3583208395802099,0.27136431784107945,-0.5037481259370314,1353.8461538461538,96.98256213665204,34.4559041392291,
1771001482193.8909,-1.7391304347826086,-5.434782608695652,1.2065217391304348,-4.31837223219629,-8.777977259126272,-1.175344105326152,4030.7692307692305,1805.8608058608058,1.0,4.5972610432540755,217.5208217656857,-1.1450381679389312,11.32824427480916,-3.32824427480916,-0.3523238380809595,0.2863568215892054,-0.5067466266866567,1381.6849816849815,96.9739779829979,34.4559041392291,
1771001482213.4229,-1.7282608695652173,-5.423913043478261,1.184782608695652,-4.313584679832435,-8.77079593058049,-1.1944943147815679,4007.326007326007,1769.9633699633698,1.0,4.5972610432540755,217.5208217656857,-1.5725190839694656,11.954198473282442,-3.0076335877862594,-0.3448275862068965,0.2698650674662669,-0.5022488755622189,1380.952380952381,96.97683936472413,34.4559041392291,
1771001482232.9548,-1.7717391304347825,-5.445652173913043,1.1195652173913042,-4.3710353081986835,-8.821065230400958,-1.2447636146020347,4032.234432234432,1791.2087912087911,1.0,4.5972610432540755,217.5208217656857,-1.2519083969465647,12.916030534351144,-2.1068702290076335,-0.3583208395802099,0.27436281859070466,-0.5022488755622189,1364.8351648351647,96.9739779829979,34.4559041392291,
1771001482252.4868,-1.7391304347826086,-5.413043478260869,1.1956521739130435,-4.325553560742071,-8.749251944943147,-1.189706762417714,4032.234432234432,1797.8021978021977,1.0,4.5972610432540755,217.5208217656857,-1.114503816793893,12.320610687022901,-1.9083969465648853,-0.34332833583208394,0.2623688155922039,-0.5067466266866567,1353.113553113553,96.97683936472413,34.4559041392291,
1771001482272.0188,-1.75,-5.4021739130434785,1.2173913043478262,-4.375822860562537,-8.773189706762418,-1.170556552962298,4021.978021978022,1787.5457875457873,1.0,4.5921558116680075,217.76264591439684,-1.7404580152671756,11.526717557251908,-1.7099236641221374,-0.34782608695652173,0.2638680659670165,-0.5007496251874063,1364.8351648351647,96.97683936472413,34.4559041392291,
1771001482291.5503,-1.717391304347826,-5.4021739130434785,1.2065217391304348,-4.327947336923997,-8.77079593058049,-1.18491921005386,4032.234432234432,1797.069597069597,1.0,4.5972610432540755,217.5208217656857,-2.396946564885496,9.969465648854962,-1.3893129770992365,-0.3523238380809595,0.2623688155922039,-0.5037481259370314,1406.5934065934066,96.9739779829979,34.4559041392291,
1771001482311.0825,-1.7282608695652173,-5.380434782608695,1.2173913043478262,-4.325553560742071,-8.763614602034709,-1.153800119688809,4032.234432234432,1799.2673992673992,1.0,4.5972610432540755,217.5208217656857,-2.5801526717557253,10.091603053435113,0.24427480916030533,-0.35082458770614694,0.26836581709145424,-0.5112443778110944,1471.7948717948716,96.97683936472413,34.4559041392291,
1771001482330.6145,-1.7391304347826086,-5.434782608695652,1.2608695652173914,-4.344703770197486,-8.78755236385398,-1.141831238779174,4030.7692307692305,1804.3956043956043,1.0,4.5972610432540755,217.5208217656857,-3.0381679389312977,9.786259541984732,0.3511450381679389,-0.34782608695652173,0.2653673163418291,-0.5112443778110944,1547.985347985348,96.97683936472413,34.4559041392291,
1771001482350.1465,-1.6956521739130435,-5.5,1.2173913043478262,-4.2752842609216035,-8.86654697785757,-1.1226810293237581,4032.234432234432,1801.4652014652013,1.0,4.5921558116680075,217.76264591439684,-2.564885496183206,9.618320610687023,1.1603053435114503,-0.34782608695652173,0.27136431784107945,-0.505247376311844,1612.4542124542124,96.97683936472413,34.4559041392291,
1771001482369.6785,-1.7282608695652173,-5.543478260869565,1.2608695652173914,-4.287253141831239,-8.902453620586474,-1.1346499102333931,4027.8388278388275,1797.8021978021977,1.0,4.5972610432540755,217.5208217656857,-2.396946564885496,9.450381679389313,2.16793893129771,-0.3448275862068965,0.27436281859070466,-0.505247376311844,1614.6520146520145,96.97683936472413,34.4559041392291,
1771001482389.2104,-1.7391304347826086,-5.543478260869565,1.2608695652173914,-4.356672651107122,-8.9311789347696,-1.141831238779174,4005.8608058608056,1761.172161172161,1.0,4.5972610432540755,217.5208217656857,-2.259541984732824,7.801526717557252,2.9770992366412212,-0.3403298350824588,0.2773613193403298,-0.4992503748125937,1572.8937728937728,96.9739779829979,34.4559041392291,
1771001482408.7424,-1.684782608695652,-5.510869565217392,1.3043478260869565,-4.2992220227408735,-8.902453620586474,-1.0891681627767804,4032.234432234432,1789.0109890109889,1.0,4.5972610432540755,217.5208217656857,-2.213740458015267,5.526717557251908,3.3893129770992365,-0.3493253373313343,0.26686656671664166,-0.5157421289355322,1495.970695970696,96.97683936472413,34.4559041392291,
1771001482428.2744,-1.608695652173913,-5.510869565217392,1.25,-4.217833632555356,-8.909634949132256,-1.1154997007779772,4020.5128205128203,1778.021978021978,1.0,4.5972610432540755,217.5208217656857,-1.7862595419847327,4.229007633587786,4.1679389312977095,-0.3403298350824588,0.26836581709145424,-0.5067466266866567,1396.3369963369962,96.9797007492755,34.4559041392291,
1771001482447.8064,-1.5978260869565217,-5.467391304347826,1.2282608695652173,-4.191502094554159,-8.868940754039498,-1.1202872531418313,4033.6996336996335,1800.7326007326005,1.0,4.5972610432540755,217.5208217656857,-1.1908396946564885,4.458015267175572,4.580152671755725,-0.35082458770614694,0.2638680659670165,-0.5007496251874063,1309.89010989011,96.9797007492755,34.4559041392291,
1771001482467.3384,-1.5978260869565217,-5.423913043478261,1.2173913043478262,-4.141232794733693,-8.811490125673249,-1.177737881508079,4033.6996336996335,1799.2673992673992,1.0,4.5972610432540755,217.5208217656857,-1.0229007633587786,5.374045801526718,4.183206106870228,-0.3403298350824588,0.2788605697151424,-0.5097451274362819,1239.5604395604396,96.9797007492755,34.4559041392291,
1771001482486.8704,-1.5434782608695652,-5.445652173913043,1.2173913043478262,-4.124476361460204,-8.766008378216636,-1.189706762417714,4029.304029304029,1798.5347985347985,1.0,4.5972610432540755,217.5208217656857,-0.6717557251908397,4.854961832061068,3.969465648854962,-0.3448275862068965,0.26836581709145424,-0.5007496251874063,1192.6739926739926,96.97683936472413,34.4559041392291,
1771001482506.4023,-1.4891304347826086,-5.467391304347826,1.2173913043478262,-4.1077199281867145,-8.828246558946738,-1.196888090963495,4032.234432234432,1799.2673992673992,1.0,4.5972610432540755,217.5208217656857,-0.9312977099236641,4.534351145038168,3.9083969465648853,-0.335832083958021,0.272863568215892,-0.5082458770614693,1175.0915750915751,96.9739779829979,34.4559041392291,
1771001482525.9343,-1.608695652173913,-5.5,1.1521739130434783,-4.1723518850987436,-8.859365649311789,-1.2232196289646917,4007.326007326007,1768.4981684981683,1.0,4.602366274840143,217.27953410981695,-1.9083969465648853,3.5114503816793894,4.473282442748092,-0.33883058470764615,0.2773613193403298,-0.5082458770614693,1198.5347985347985,96.97111660409682,34.4559041392291,
1771001482545.4663,-1.5434782608695652,-5.489130434782608,1.1195652173913042,-4.1508078994614,-8.878515858767205,-1.2567324955116697,4032.234432234432,1791.2087912087911,1.0,4.602366274840143,217.27953410981695,-2.564885496183206,0.564885496183206,3.4045801526717554,-0.34632683658170915,0.2863568215892054,-0.5037481259370314,1239.5604395604396,96.9797007492755,34.4559041392291,
1771001482564.9983,-1.5543478260869565,-5.489130434782608,1.141304347826087,-4.129263913824057,-8.864153201675643,-1.2567324955116697,4032.234432234432,1797.8021978021977,1.0,4.602366274840143,217.27953410981695,-2.549618320610687,-1.618320610687023,3.3893129770992365,-0.34332833583208394,0.2653673163418291,-0.5082458770614693,1283.5164835164835,96.97111660409682,34.4559041392291,
1771001482584.5305,-1.4891304347826086,-5.478260869565217,1.108695652173913,-4.067025733093955,-8.837821663674447,-1.2734889287851585,4020.5128205128203,1780.9523809523807,1.0,4.602366274840143,217.27953410981695,-3.0229007633587783,-3.2671755725190836,3.32824427480916,-0.33883058470764615,0.2848575712143928,-0.5037481259370314,1315.018315018315,96.97683936472413,34.4559041392291,
1771001482604.0625,-1.5217391304347825,-5.5,1.0869565217391304,-4.074207061639736,-8.861759425493716,-1.2902453620586476,4033.6996336996335,1800.7326007326005,1.0,4.602366274840143,217.27953410981695,-3.114503816793893,-3.2061068702290076,3.0076335877862594,-0.33883058470764615,0.2608695652173913,-0.5082458770614693,1339.194139194139,96.9739779829979,34.4559041392291,
1771001482623.5942,-1.5217391304347825,-5.489130434782608,1.0543478260869565,-4.081388390185517,-8.895272292040694,-1.3261520047875524,4033.6996336996335,1806.5934065934064,1.0,4.602366274840143,217.27953410981695,-3.4045801526717554,-3.5572519083969465,2.610687022900763,-0.33883058470764615,0.25337331334332835,-0.4932533733133433,1350.9157509157508,96.9739779829979,34.4559041392291,
1771001482643.1262,-1.5108695652173914,-5.467391304347826,1.076086956521739,-4.067025733093955,-8.854578096947936,-1.3213644524236983,4032.234432234432,1802.197802197802,1.0,4.602366274840143,217.27953410981695,-4.244274809160305,-3.4198473282442747,2.1221374045801524,-0.3448275862068965,0.2623688155922039,-0.505247376311844,1345.7875457875457,96.97683936472413,34.4559041392291,
1771001482662.6582,-1.4891304347826086,-5.413043478260869,1.076086956521739,-4.0359066427289045,-8.782764811490125,-1.3165769000598444,4032.234432234432,1800.7326007326005,1.0,4.602366274840143,217.27953410981695,-4.3206106870229,-4.458015267175572,0.9618320610687022,-0.34182908545727136,0.26836581709145424,-0.4977511244377811,1329.6703296703297,96.9797007492755,34.4559041392291,
1771001482682.1902,-1.5217391304347825,-5.423913043478261,1.0434782608695652,-4.050269299820466,-8.780371035308198,-1.3596648713345303,4008.7912087912086,1764.102564102564,1.0,4.602366274840143,217.27953410981695,-5.099236641221374,-5.83206106870229,0.4580152671755725,-0.3403298350824588,0.2653673163418291,-0.5082458770614693,1311.3553113553112,96.97683936472413,34.4559041392291,
1771001482701.722,-1.5326086956521738,-5.423913043478261,1.065217391304348,-4.090963494913225,-8.780371035308198,-1.3285457809694794,4032.234432234432,1789.7435897435896,1.0,4.607471506426211,217.03878116343486,-5.969465648854961,-6.595419847328244,-0.38167938931297707,-0.33883058470764615,0.2788605697151424,-0.4992503748125937,1293.040293040293,96.97111660409682,34.4559041392291,
1771001482721.254,-1.5217391304347825,-5.467391304347826,1.065217391304348,-4.057450628366247,-8.845002992220227,-1.3333333333333333,4032.234432234432,1797.8021978021977,1.0,4.607471506426211,217.03878116343486,-7.206106870229007,-7.526717557251908,-1.4961832061068703,-0.3313343328335832,0.27136431784107945,-0.5067466266866567,1279.8534798534797,96.97683936472413,34.4559041392291,
1771001482740.786,-1.576086956521739,-5.510869565217392,1.0543478260869565,-4.114901256732495,-8.849790544584081,-1.3381208856971873,4017.5824175824173,1779.4871794871794,1.0,4.612576738012279,216.7985611510791,-7.66412213740458,-6.946564885496183,-2.4122137404580153,-0.3403298350824588,0.2698650674662669,-0.512743628185907,1285.7142857142856,96.9797007492755,34.4559041392291,
1771001482760.318,-1.6304347826086956,-5.467391304347826,1.0543478260869565,-4.210652304009575,-8.845002992220227,-1.362058647516457,4032.234432234432,1794.8717948717947,1.0,4.612576738012279,216.7985611510791,-8.885496183206106,-7.923664122137405,-3.0839694656488548,-0.3448275862068965,0.2623688155922039,-0.5037481259370314,1290.8424908424909,96.9739779829979,34.4559041392291,
1771001482779.85,-1.5869565217391304,-5.4021739130434785,1.065217391304348,-4.177139437462597,-8.775583482944345,-1.3476959904248953,4032.234432234432,1797.8021978021977,1.0,4.612576738012279,216.7985611510791,-9.038167938931297,-10.82442748091603,-4.33587786259542,-0.33883058470764615,0.2578710644677661,-0.5037481259370314,1290.8424908424909,96.97683936472413,34.4559041392291,
1771001482799.3818,-1.576086956521739,-5.423913043478261,1.1304347826086956,-4.153201675643327,-8.77079593058049,-1.3333333333333333,4032.234432234432,1799.2673992673992,1.0,4.612576738012279,216.7985611510791,-9.358778625954198,-11.572519083969466,-4.458015267175572,-0.335832083958021,0.2623688155922039,-0.5007496251874063,1287.9120879120878,96.9797007492755,34.4559041392291,
1771001482818.9138,-1.608695652173913,-5.478260869565217,1.108695652173913,-4.17474566128067,-8.840215439856372,-1.2878515858767206,4032.234432234432,1799.9999999999998,1.0,4.617681969598347,216.55887230514094,-9.648854961832061,-10.885496183206106,-4.488549618320611,-0.3403298350824588,0.2623688155922039,-0.5067466266866567,1282.7838827838827,96.97683936472413,34.4559041392291,
1771001482838.4458,-1.6521739130434783,-5.489130434782608,1.076086956521739,-4.213046080191502,-8.885697187312987,-1.3141831238779174,4007.326007326007,1767.7655677655675,1.0,4.617681969598347,216.55887230514094,-9.98473282442748,-9.48091603053435,-5.114503816793893,-0.34182908545727136,0.2653673163418291,-0.5112443778110944,1279.120879120879,96.97683936472413,34.4559041392291,
1771001482857.9778,-1.684782608695652,-5.445652173913043,1.065217391304348,-4.239377618192699,-8.852184320766009,-1.3357271095152603,4032.234432234432,1791.2087912087911,1.0,4.617681969598347,216.55887230514094,-10.213740458015266,-8.900763358778626,-6.381679389312977,-0.3448275862068965,0.26686656671664166,-0.505247376311844,1284.2490842490843,96.98256213665204,34.4559041392291,
1771001482877.5098,-1.7065217391304348,-5.358695652173913,1.076086956521739,-4.289646918013165,-8.742070616397367,-1.3213644524236983,4032.234432234432,1797.8021978021977,1.0,4.617681969598347,216.55887230514094,-10.305343511450381,-9.48091603053435,-6.5038167938931295,-0.3448275862068965,0.26686656671664166,-0.5112443778110944,1291.5750915750914,96.97683936472413,34.4559041392291,
1771001482897.0415,-1.75,-5.315217391304348,1.1304347826086956,-4.339916217833633,-8.710951526032316,-1.3022142429682824,4016.117216117216,1778.7545787545787,1.0,4.617681969598347,216.55887230514094,-10.702290076335878,-10.961832061068701,-6.519083969465648,-0.3403298350824588,0.27436281859070466,-0.5142428785607196,1295.2380952380952,96.97683936472413,34.4559041392291,
1771001482916.5735,-1.7826086956521738,-5.315217391304348,1.184782608695652,-4.375822860562537,-8.672651107121483,-1.2351885098743267,4004.395604395604,1754.5787545787546,1.0,4.617681969598347,216.55887230514094,-11.755725190839694,-13.190839694656487,-7.083969465648854,-0.3448275862068965,0.29685157421289354,-0.5112443778110944,1299.6336996336995,96.97683936472413,34.4559041392291,
1771001482936.1057,-1.7934782608695652,-5.293478260869565,1.184782608695652,-4.368641532016756,-8.658288450029922,-1.18491921005386,4032.234432234432,1787.5457875457873,1.0,4.622787201184415,216.31971286581995,-13.038167938931297,-14.122137404580153,-7.358778625954198,-0.34782608695652173,0.2908545727136432,-0.5217391304347826,1335.5311355311355,96.97111660409682,34.4559041392291,
1771001482955.6377,-1.7717391304347825,-5.33695652173913,1.1630434782608696,-4.356672651107122,-8.6918013165769,-1.196888090963495,4032.234432234432,1796.3369963369962,1.0,4.622787201184415,216.31971286581995,-13.053435114503817,-13.48091603053435,-7.862595419847328,-0.34632683658170915,0.2638680659670165,-0.5112443778110944,1424.9084249084249,96.9739779829979,34.4559041392291,
1771001482975.1697,-1.7391304347826086,-5.445652173913043,1.1521739130434783,-4.330341113105924,-8.775583482944345,-1.2423698384201076,4032.234432234432,1799.2673992673992,1.0,4.622787201184415,216.31971286581995,-12.67175572519084,-10.335877862595419,-8.473282442748092,-0.35082458770614694,0.2638680659670165,-0.4932533733133433,1536.263736263736,96.9739779829979,34.4559041392291,
1771001482994.7017,-1.8804347826086956,-5.478260869565217,1.1739130434782608,-4.457211250748055,-8.833034111310592,-1.196888090963495,4008.7912087912086,1763.3699633699632,1.0,4.622787201184415,216.31971286581995,-11.343511450381678,-6.900763358778626,-8.625954198473282,-0.3493253373313343,0.2698650674662669,-0.512743628185907,1614.6520146520145,96.97683936472413,34.4559041392291,
1771001483014.2336,-1.891304347826087,-5.478260869565217,1.2173913043478262,-4.502692998204668,-8.833034111310592,-1.16098144823459,4033.6996336996335,1796.3369963369962,1.0,4.627892432770482,216.08108108108107,-10.80916030534351,-5.969465648854961,-9.053435114503817,-0.35082458770614694,0.2788605697151424,-0.5067466266866567,1631.5018315018315,96.97111660409682,34.4559041392291,
1771001483033.7656,-1.8695652173913042,-5.423913043478261,1.2065217391304348,-4.495511669658887,-8.821065230400958,-1.2136445242369838,4032.234432234432,1799.2673992673992,1.0,4.627892432770482,216.08108108108107,-10.610687022900763,-5.938931297709924,-8.091603053435113,-0.35082458770614694,0.2773613193403298,-0.5097451274362819,1600.7326007326005,96.97683936472413,34.4559041392291,
1771001483053.2976,-1.934782608695652,-5.369565217391304,1.2173913043478262,-4.531418312387792,-8.756433273488929,-1.156193895870736,4016.117216117216,1778.7545787545787,1.0,4.627892432770482,216.08108108108107,-10.50381679389313,-7.145038167938931,-7.603053435114504,-0.3538230884557721,0.27436281859070466,-0.5097451274362819,1533.3333333333333,96.98256213665204,34.4559041392291,
1771001483072.8296,-1.891304347826087,-5.380434782608695,1.2173913043478262,-4.500299222022741,-8.749251944943147,-1.165769000598444,4033.6996336996335,1799.9999999999998,1.0,4.627892432770482,216.08108108108107,-9.98473282442748,-8.106870229007633,-6.870229007633587,-0.3583208395802099,0.2638680659670165,-0.505247376311844,1439.5604395604394,96.97683936472413,34.4559041392291,
1771001483092.3616,-1.8478260869565217,-5.380434782608695,1.184782608695652,-4.471573907839617,-8.737283064033512,-1.189706762417714,4032.234432234432,1799.9999999999998,1.0,4.63299766435655,215.84297520661156,-8.931297709923664,-6.33587786259542,-6.549618320610687,-0.35532233883058467,0.28785607196401797,-0.5097451274362819,1343.5897435897434,96.9739779829979,34.4559041392291,
1771001483111.8936,-1.826086956521739,-5.369565217391304,1.184782608695652,-4.423698384201077,-8.737283064033512,-1.1944943147815679,4032.234432234432,1799.9999999999998,1.0,4.63299766435655,215.84297520661156,-8.106870229007633,-3.1908396946564883,-6.213740458015267,-0.3538230884557721,0.25487256371814093,-0.5157421289355322,1269.5970695970695,96.97111660409682,34.4559041392291,
1771001483131.4253,-1.934782608695652,-5.3478260869565215,1.1630434782608696,-4.543387193297427,-8.718132854578096,-1.2256134051466188,4020.5128205128203,1780.9523809523807,1.0,4.63299766435655,215.84297520661156,-6.900763358778626,-0.5038167938931297,-5.603053435114504,-0.3583208395802099,0.2638680659670165,-0.5007496251874063,1217.5824175824175,96.97683936472413,34.4559041392291,
1771001483150.9573,-1.934782608695652,-5.3478260869565215,1.141304347826087,-4.5625374027528425,-8.710951526032316,-1.2423698384201076,4008.7912087912086,1758.2417582417581,1.0,4.638102895942618,215.60539350577872,-6.366412213740458,-0.9923664122137404,-5.007633587786259,-0.35982008995502246,0.2773613193403298,-0.5157421289355322,1186.8131868131868,96.9739779829979,34.4559041392291,
1771001483170.4893,-1.9021739130434783,-5.315217391304348,1.108695652173913,-4.51705565529623,-8.68461998803112,-1.2782764811490126,4005.8608058608056,1750.18315018315,1.0,4.638102895942618,215.60539350577872,-5.923664122137405,-1.8015267175572518,-4.030534351145038,-0.36731634182908546,0.2788605697151424,-0.512743628185907,1194.1391941391942,96.97683936472413,34.4559041392291,
1771001483190.0212,-1.9021739130434783,-5.315217391304348,1.076086956521739,-4.552962298025134,-8.6918013165769,-1.3070017953321365,4032.234432234432,1786.080586080586,1.0,4.638102895942618,215.60539350577872,-6.412213740458015,-1.2366412213740459,-3.2061068702290076,-0.3538230884557721,0.2848575712143928,-0.5007496251874063,1232.2344322344322,96.9797007492755,34.4559041392291,
1771001483209.5532,-1.891304347826087,-5.326086956521739,1.0434782608695652,-4.5146618791143025,-8.687013764213045,-1.3476959904248953,4016.117216117216,1774.3589743589741,1.0,4.643208127528686,215.36833424958766,-6.305343511450381,-0.9312977099236641,-1.9236641221374045,-0.35982008995502246,0.27436281859070466,-0.4962518740629685,1279.120879120879,96.97683936472413,34.4559041392291,
1771001483229.0852,-1.9021739130434783,-5.33695652173913,1.0326086956521738,-4.521843207660083,-8.706163973668462,-1.3453022142429683,4033.6996336996335,1799.2673992673992,1.0,4.638102895942618,215.60539350577872,-5.801526717557252,-0.9312977099236641,-0.9923664122137404,-0.35982008995502246,0.2698650674662669,-0.5067466266866567,1314.2857142857142,96.9739779829979,34.4559041392291,
1771001483248.6172,-1.858695652173913,-5.33695652173913,1.065217391304348,-4.481149012567325,-8.67504488330341,-1.3405146618791142,4033.6996336996335,1805.8608058608058,1.0,4.643208127528686,215.36833424958766,-5.450381679389313,-2.030534351145038,-0.07633587786259542,-0.3568215892053973,0.2638680659670165,-0.5007496251874063,1331.135531135531,96.98256213665204,34.4559041392291,
1771001483268.1492,-1.8152173913043477,-5.33695652173913,1.0434782608695652,-4.447636146020347,-8.694195092758827,-1.371633752244165,4030.7692307692305,1805.8608058608058,1.0,4.643208127528686,215.36833424958766,-5.450381679389313,-1.6793893129770991,0.0,-0.3538230884557721,0.29235382308845576,-0.5112443778110944,1330.4029304029302,96.98256213665204,34.4559041392291,
1771001483287.6812,-1.8152173913043477,-5.3478260869565215,1.0978260869565217,-4.426092160383004,-8.682226211849192,-1.3117893476959903,4032.234432234432,1802.197802197802,1.0,4.643208127528686,215.36833424958766,-5.633587786259541,-1.66412213740458,0.42748091603053434,-0.3613193403298351,0.2608695652173913,-0.5037481259370314,1317.216117216117,96.97683936472413,34.4559041392291,
1771001483307.2131,-1.8043478260869565,-5.33695652173913,1.065217391304348,-4.385397965290245,-8.660682226211849,-1.3093955715140635,4008.7912087912086,1764.102564102564,1.0,4.643208127528686,215.36833424958766,-5.374045801526718,-0.9465648854961831,0.7175572519083969,-0.36281859070464767,0.2638680659670165,-0.505247376311844,1295.970695970696,96.97683936472413,34.4559041392291,
1771001483326.745,-1.7391304347826086,-5.315217391304348,1.065217391304348,-4.344703770197486,-8.679832435667265,-1.3381208856971873,4004.395604395604,1749.4505494505493,1.0,4.648313359114754,215.13179571663917,-5.465648854961832,-0.8854961832061068,0.5801526717557252,-0.3568215892053973,0.2773613193403298,-0.5082458770614693,1271.7948717948716,96.97111660409682,34.4559041392291,
1771001483346.277,-1.75,-5.3478260869565215,1.0869565217391304,-4.315978456014363,-8.677438659485338,-1.3213644524236983,4032.234432234432,1786.080586080586,1.0,4.648313359114754,215.13179571663917,-5.0534351145038165,0.3511450381679389,0.38167938931297707,-0.3538230884557721,0.27586206896551724,-0.5007496251874063,1249.8168498168498,96.97683936472413,34.4559041392291,
1771001483365.809,-1.717391304347826,-5.3478260869565215,1.1304347826086956,-4.325553560742071,-8.66786355475763,-1.2950329144225015,4011.721611721611,1767.032967032967,1.0,4.648313359114754,215.13179571663917,-4.9465648854961835,0.6564885496183206,-0.16793893129770993,-0.3613193403298351,0.27586206896551724,-0.5157421289355322,1240.2930402930401,96.9797007492755,34.4559041392291,
1771001483385.341,-1.7282608695652173,-5.326086956521739,1.1195652173913042,-4.289646918013165,-8.679832435667265,-1.2519449431478156,4004.395604395604,1751.6483516483515,1.0,4.648313359114754,215.13179571663917,-4.2748091603053435,2.015267175572519,0.04580152671755725,-0.3613193403298351,0.2893553223388306,-0.5157421289355322,1238.8278388278388,96.97683936472413,34.4559041392291,
1771001483404.873,-1.7065217391304348,-5.369565217391304,1.1195652173913042,-4.313584679832435,-8.703770197486534,-1.2543387193297426,4032.234432234432,1786.080586080586,1.0,4.653418590700821,214.8957761930883,-4.305343511450381,2.748091603053435,-0.5801526717557252,-0.3583208395802099,0.2698650674662669,-0.5157421289355322,1241.7582417582416,96.97111660409682,34.4559041392291,
1771001483424.405,-1.7282608695652173,-5.369565217391304,1.1630434782608696,-4.301615798922801,-8.730101735487732,-1.2351885098743267,4030.7692307692305,1800.7326007326005,1.0,4.648313359114754,215.13179571663917,-3.847328244274809,4.351145038167939,-1.1603053435114503,-0.36281859070464767,0.2908545727136432,-0.5172413793103449,1246.8864468864467,96.98256213665204,34.4559041392291,
1771001483443.937,-1.8043478260869565,-5.413043478260869,1.141304347826087,-4.351885098743267,-8.766008378216636,-1.2375822860562538,4032.234432234432,1799.9999999999998,1.0,4.648313359114754,215.13179571663917,-3.633587786259542,6.152671755725191,-2.1526717557251906,-0.35982008995502246,0.28785607196401797,-0.5037481259370314,1260.8058608058607,96.98256213665204,34.4559041392291,
1771001483463.469,-1.7608695652173914,-5.445652173913043,1.141304347826087,-4.3710353081986835,-8.811490125673249,-1.2184320766008379,4008.7912087912086,1763.3699633699632,1.0,4.653418590700821,214.8957761930883,-3.145038167938931,5.9541984732824424,-2.33587786259542,-0.3583208395802099,0.2638680659670165,-0.5022488755622189,1279.8534798534797,96.9797007492755,34.4559041392291,
1771001483483.001,-1.7934782608695652,-5.445652173913043,1.141304347826087,-4.373429084380611,-8.797127468581687,-1.2663076002393776,4032.234432234432,1796.3369963369962,1.0,4.653418590700821,214.8957761930883,-2.549618320610687,6.641221374045801,-2.687022900763359,-0.36281859070464767,0.2563718140929535,-0.4962518740629685,1301.8315018315018,96.97683936472413,34.4559041392291,
1771001483502.533,-1.8043478260869565,-5.4021739130434785,1.108695652173913,-4.392579293836026,-8.773189706762418,-1.2327947336923997,4033.6996336996335,1805.128205128205,1.0,4.653418590700821,214.8957761930883,-1.6030534351145038,6.519083969465648,-2.396946564885496,-0.3523238380809595,0.2773613193403298,-0.5097451274362819,1316.4835164835165,96.98256213665204,34.4559041392291,
1771001483522.065,-1.7826086956521738,-5.369565217391304,1.0869565217391304,-4.385397965290245,-8.749251944943147,-1.3046080191502094,4013.1868131868127,1778.7545787545787,1.0,4.653418590700821,214.8957761930883,-0.7175572519083969,6.702290076335878,-1.9389312977099236,-0.34782608695652173,0.27586206896551724,-0.5022488755622189,1322.3443223443223,96.97683936472413,34.4559041392291,
1771001483541.5967,-1.7391304347826086,-5.3478260869565215,1.1195652173913042,-4.359066427289048,-8.71573907839617,-1.3070017953321365,4033.6996336996335,1800.7326007326005,1.0,4.653418590700821,214.8957761930883,-0.41221374045801523,7.893129770992366,-1.2366412213740459,-0.3613193403298351,0.27436281859070466,-0.5007496251874063,1320.8791208791208,96.9797007492755,34.4559041392291,
1771001483561.129,-1.6956521739130435,-5.315217391304348,1.0978260869565217,-4.29443447037702,-8.689407540394972,-1.2878515858767206,4033.6996336996335,1806.5934065934064,1.0,4.653418590700821,214.8957761930883,-0.15267175572519084,8.595419847328245,-0.38167938931297707,-0.34782608695652173,0.2773613193403298,-0.5067466266866567,1330.4029304029302,96.97683936472413,34.4559041392291,
1771001483580.6606,-1.9021739130434783,-5.380434782608695,1.0108695652173914,-4.507480550568522,-8.730101735487732,-1.362058647516457,4032.234432234432,1802.197802197802,1.0,4.658523822286889,214.6602739726027,-0.564885496183206,8.748091603053435,0.549618320610687,-0.3523238380809595,0.26836581709145424,-0.5022488755622189,1358.2417582417581,96.9797007492755,34.4559041392291,
1771001483600.1926,-1.75,-5.4021739130434785,1.0434782608695652,-4.344703770197486,-8.756433273488929,-1.374027528426092,4032.234432234432,1800.7326007326005,1.0,4.658523822286889,214.6602739726027,-0.8549618320610687,5.526717557251908,0.3053435114503817,-0.36281859070464767,0.2563718140929535,-0.5037481259370314,1426.3736263736262,96.98542352685372,34.4559041392291,
1771001483619.7246,-1.75,-5.434782608695652,1.0434782608695652,-4.351885098743267,-8.809096349491321,-1.3453022142429683,4032.234432234432,1800.7326007326005,1.0,4.658523822286889,214.6602739726027,-1.0534351145038168,3.49618320610687,0.7022900763358778,-0.3493253373313343,0.2578710644677661,-0.5037481259370314,1536.9963369963368,96.97111660409682,34.4559041392291,
1771001483639.2566,-1.6739130434782608,-5.467391304347826,1.0543478260869565,-4.272890484739677,-8.83542788749252,-1.3596648713345303,4004.395604395604,1761.172161172161,1.0,4.658523822286889,214.6602739726027,-0.8549618320610687,3.1755725190839694,0.3511450381679389,-0.35982008995502246,0.2623688155922039,-0.5097451274362819,1639.5604395604394,96.9797007492755,34.4559041392291,
1771001483658.7886,-1.6739130434782608,-5.445652173913043,1.0217391304347825,-4.265709156193895,-8.833034111310592,-1.3692399760622382,4032.234432234432,1789.7435897435896,1.0,4.658523822286889,214.6602739726027,-0.42748091603053434,4.687022900763359,0.4427480916030534,-0.3538230884557721,0.27586206896551724,-0.5097451274362819,1703.296703296703,96.9797007492755,34.4559041392291,
1771001483678.3206,-1.641304347826087,-5.489130434782608,0.9891304347826086,-4.22262118491921,-8.854578096947936,-1.400359066427289,4011.721611721611,1767.7655677655675,1.0,4.658523822286889,214.6602739726027,0.21374045801526717,5.572519083969466,0.6412213740458015,-0.3613193403298351,0.272863568215892,-0.5037481259370314,1709.8901098901097,96.9739779829979,34.4559041392291,
1771001483697.8523,-1.6739130434782608,-5.434782608695652,1.065217391304348,-4.213046080191502,-8.830640335128665,-1.385996409335727,4032.234432234432,1791.2087912087911,1.0,4.658523822286889,214.6602739726027,0.015267175572519083,6.305343511450381,1.1755725190839694,-0.35982008995502246,0.27586206896551724,-0.505247376311844,1643.2234432234432,96.97683936472413,34.4559041392291,
1771001483717.3845,-1.608695652173913,-5.434782608695652,0.9891304347826086,-4.234590065828845,-8.833034111310592,-1.3572710951526032,4032.234432234432,1797.069597069597,1.0,4.663629053872956,214.42528735632183,0.3053435114503817,6.259541984732824,0.9618320610687022,-0.3523238380809595,0.27136431784107945,-0.505247376311844,1539.9267399267399,96.97683936472413,34.4559041392291,
1771001483736.9165,-1.6195652173913042,-5.423913043478261,0.9565217391304348,-4.169958108916816,-8.785158587672052,-1.4410532615200478,4032.234432234432,1799.2673992673992,1.0,4.663629053872956,214.42528735632183,-0.4580152671755725,4.381679389312977,1.0534351145038168,-0.3538230884557721,0.2638680659670165,-0.505247376311844,1444.6886446886447,96.97111660409682,34.4559041392291,
1771001483756.4485,-1.5978260869565217,-5.4021739130434785,0.9891304347826086,-4.215439856373429,-8.777977259126272,-1.424296828246559,4032.234432234432,1799.9999999999998,1.0,4.663629053872956,214.42528735632183,-0.3969465648854962,3.9083969465648853,1.5725190839694656,-0.3568215892053973,0.2893553223388306,-0.5037481259370314,1360.4395604395604,96.97683936472413,34.4559041392291,
1771001483775.9805,-1.5434782608695652,-5.423913043478261,1.0,-4.1316576900059845,-8.773189706762418,-1.400359066427289,4011.721611721611,1771.4285714285713,1.0,4.663629053872956,214.42528735632183,-1.1908396946564885,1.9083969465648853,0.9007633587786259,-0.3523238380809595,0.2623688155922039,-0.5022488755622189,1294.5054945054944,96.98256213665204,34.4559041392291,
1771001483795.5125,-1.5326086956521738,-5.423913043478261,0.9782608695652174,-4.105326152004787,-8.79473369239976,-1.424296828246559,4032.234432234432,1791.9413919413919,1.0,4.663629053872956,214.42528735632183,-1.4351145038167938,3.282442748091603,0.4580152671755725,-0.3568215892053973,0.2623688155922039,-0.5097451274362819,1263.003663003663,96.97683936472413,34.4559041392291,
1771001483815.0444,-1.5326086956521738,-5.445652173913043,0.9891304347826086,-4.105326152004787,-8.804308797127469,-1.393177737881508,4032.234432234432,1797.8021978021977,1.0,4.663629053872956,214.42528735632183,-1.9389312977099236,3.83206106870229,-0.2900763358778626,-0.35532233883058467,0.27586206896551724,-0.505247376311844,1259.3406593406592,96.9739779829979,34.4559041392291,
1771001483834.5764,-1.4891304347826086,-5.434782608695652,1.0217391304347825,-4.112507480550568,-8.804308797127469,-1.390783961699581,4010.25641025641,1769.230769230769,1.0,4.663629053872956,214.42528735632183,-2.1068702290076335,4.229007633587786,-0.41221374045801523,-0.35532233883058467,0.2653673163418291,-0.5037481259370314,1263.003663003663,96.9797007492755,34.4559041392291,
1771001483854.1084,-1.576086956521739,-5.445652173913043,1.0217391304347825,-4.102932375822861,-8.79473369239976,-1.3668461998803112,4004.395604395604,1752.3809523809523,1.0,4.663629053872956,214.42528735632183,-2.198473282442748,4.641221374045801,-1.114503816793893,-0.3493253373313343,0.27436281859070466,-0.512743628185907,1281.3186813186812,96.97683936472413,34.4559041392291,
1771001483873.6404,-1.5217391304347825,-5.445652173913043,1.0217391304347825,-4.124476361460204,-8.804308797127469,-1.385996409335727,4032.234432234432,1786.8131868131868,1.0,4.663629053872956,214.42528735632183,-2.687022900763359,3.877862595419847,-2.1374045801526718,-0.3538230884557721,0.272863568215892,-0.5037481259370314,1314.2857142857142,96.9797007492755,34.4559041392291,
1771001483893.1724,-1.5326086956521738,-5.413043478260869,1.0,-4.114901256732495,-8.792339916217834,-1.3644524236983842,4030.7692307692305,1800.7326007326005,1.0,4.663629053872956,214.42528735632183,-3.709923664122137,2.229007633587786,-2.8396946564885495,-0.34782608695652173,0.2698650674662669,-0.5067466266866567,1345.7875457875457,96.9739779829979,34.4559041392291,
1771001483912.7043,-1.5217391304347825,-5.456521739130435,1.0108695652173914,-4.081388390185517,-8.799521244763614,-1.3572710951526032,4032.234432234432,1799.9999999999998,1.0,4.663629053872956,214.42528735632183,-3.8931297709923665,0.16793893129770993,-3.0534351145038165,-0.3523238380809595,0.2593703148425787,-0.5007496251874063,1364.102564102564,96.98256213665204,34.4559041392291,
1771001483932.2363,-1.5217391304347825,-5.467391304347826,1.0434782608695652,-4.090963494913225,-8.813883901855176,-1.374027528426092,4011.721611721611,1771.4285714285713,1.0,4.663629053872956,214.42528735632183,-4.091603053435114,-0.015267175572519083,-3.9541984732824424,-0.3523238380809595,0.2638680659670165,-0.505247376311844,1372.161172161172,96.9739779829979,34.4559041392291,
1771001483951.768,-1.5543478260869565,-5.467391304347826,1.0434782608695652,-4.090963494913225,-8.854578096947936,-1.3453022142429683,4032.234432234432,1791.9413919413919,1.0,4.668734285459024,214.19081465281573,-4.519083969465648,0.41221374045801523,-4.5038167938931295,-0.3403298350824588,0.28785607196401797,-0.5082458770614693,1364.8351648351647,96.9739779829979,34.4559041392291,
1771001483971.3,-1.641304347826087,-5.478260869565217,1.076086956521739,-4.205864751645721,-8.8426092160383,-1.3285457809694794,4030.7692307692305,1802.197802197802,1.0,4.668734285459024,214.19081465281573,-4.916030534351145,0.38167938931297707,-4.885496183206107,-0.35532233883058467,0.26686656671664166,-0.5157421289355322,1350.18315018315,96.97683936472413,34.4559041392291,
1771001483990.832,-1.5869565217391304,-5.423913043478261,1.0543478260869565,-4.1795332136445245,-8.81867145421903,-1.3070017953321365,4008.7912087912086,1764.102564102564,1.0,4.668734285459024,214.19081465281573,-4.854961832061068,0.7633587786259541,-4.916030534351145,-0.34782608695652173,0.272863568215892,-0.5097451274362819,1334.7985347985348,96.97111660409682,34.4559041392291,
1771001484010.364,-1.5652173913043477,-5.4021739130434785,1.0543478260869565,-4.143626570915619,-8.789946140035907,-1.3476959904248953,4032.234432234432,1789.7435897435896,1.0,4.663629053872956,214.42528735632183,-5.1603053435114505,-0.8091603053435115,-5.603053435114504,-0.34632683658170915,0.2773613193403298,-0.52023988005997,1312.8205128205127,96.97111660409682,34.4559041392291,
1771001484029.896,-1.6195652173913042,-5.380434782608695,1.076086956521739,-4.220227408737283,-8.756433273488929,-1.3381208856971873,4032.234432234432,1797.069597069597,1.0,4.668734285459024,214.19081465281573,-5.175572519083969,-0.32061068702290074,-5.526717557251908,-0.34632683658170915,0.26836581709145424,-0.5022488755622189,1284.9816849816848,96.9797007492755,34.4559041392291,
1771001484049.428,-1.6304347826086956,-5.423913043478261,1.1195652173913042,-4.210652304009575,-8.780371035308198,-1.2782764811490126,4030.7692307692305,1803.6630036630036,1.0,4.668734285459024,214.19081465281573,-5.358778625954198,-1.3740458015267174,-5.862595419847328,-0.3568215892053973,0.272863568215892,-0.5082458770614693,1266.6666666666665,96.9739779829979,34.4559041392291,
1771001484068.96,-1.6521739130434783,-5.434782608695652,1.0978260869565217,-4.24655894673848,-8.816277678037103,-1.2615200478755235,4032.234432234432,1801.4652014652013,1.0,4.668734285459024,214.19081465281573,-5.435114503816794,-2.045801526717557,-5.83206106870229,-0.3493253373313343,0.27436281859070466,-0.505247376311844,1264.4688644688645,96.9739779829979,34.4559041392291,
1771001484088.492,-1.6521739130434783,-5.434782608695652,1.141304347826087,-4.24655894673848,-8.799521244763614,-1.2687013764213046,4014.6520146520143,1772.8937728937728,1.0,4.668734285459024,214.19081465281573,-5.603053435114504,-1.282442748091603,-6.122137404580153,-0.3538230884557721,0.2518740629685157,-0.5142428785607196,1268.131868131868,96.97683936472413,34.4559041392291,
1771001484108.024,-1.6739130434782608,-5.467391304347826,1.108695652173913,-4.256134051466188,-8.816277678037103,-1.2519449431478156,4032.234432234432,1792.6739926739926,1.0,4.668734285459024,214.19081465281573,-5.358778625954198,-0.6412213740458015,-6.091603053435114,-0.3538230884557721,0.28785607196401797,-0.5037481259370314,1272.5274725274724,96.97683936472413,34.4559041392291,
1771001484127.556,-1.717391304347826,-5.478260869565217,1.1630434782608696,-4.292040694195093,-8.828246558946738,-1.2710951526032315,4032.234432234432,1797.8021978021977,1.0,4.668734285459024,214.19081465281573,-4.961832061068702,-1.2519083969465647,-6.3206106870229,-0.34632683658170915,0.2608695652173913,-0.5082458770614693,1289.3772893772893,96.9739779829979,34.4559041392291,
1771001484147.088,-1.717391304347826,-5.434782608695652,1.1521739130434783,-4.287253141831239,-8.81867145421903,-1.2471573907839617,4010.25641025641,1769.230769230769,1.0,4.668734285459024,214.19081465281573,-5.312977099236641,-1.5114503816793892,-5.541984732824427,-0.3568215892053973,0.2788605697151424,-0.5112443778110944,1306.227106227106,96.97683936472413,34.4559041392291,
1771001484166.62,-1.7282608695652173,-5.434782608695652,1.1521739130434783,-4.320766008378216,-8.801915020945541,-1.2280071813285458,4033.6996336996335,1797.8021978021977,1.0,4.668734285459024,214.19081465281573,-4.854961832061068,-2.3664122137404577,-5.083969465648854,-0.3583208395802099,0.27436281859070466,-0.5022488755622189,1312.087912087912,96.9739779829979,34.4559041392291,
1771001484186.152,-1.7065217391304348,-5.434782608695652,1.1195652173913042,-4.301615798922801,-8.813883901855176,-1.2663076002393776,4033.6996336996335,1805.8608058608058,1.0,4.668734285459024,214.19081465281573,-4.65648854961832,-2.33587786259542,-4.412213740458015,-0.3613193403298351,0.26836581709145424,-0.5097451274362819,1309.89010989011,96.9739779829979,34.4559041392291,
1771001484205.6838,-1.75,-5.4021739130434785,1.108695652173913,-4.332734889287852,-8.761220825852783,-1.2758827049670856,4032.234432234432,1800.7326007326005,1.0,4.668734285459024,214.19081465281573,-4.595419847328244,-2.7022900763358777,-4.030534351145038,-0.3613193403298351,0.2773613193403298,-0.5082458770614693,1295.970695970696,96.97111660409682,34.4559041392291,
1771001484225.2158,-1.7065217391304348,-5.423913043478261,1.108695652173913,-4.332734889287852,-8.777977259126272,-1.2806702573309394,4008.7912087912086,1764.102564102564,1.0,4.668734285459024,214.19081465281573,-4.351145038167939,-3.5572519083969465,-2.946564885496183,-0.36281859070464767,0.2698650674662669,-0.5082458770614693,1279.120879120879,96.97683936472413,34.4559041392291,
1771001484244.7478,-1.6956521739130435,-5.423913043478261,1.1195652173913042,-4.304009575104728,-8.797127468581687,-1.2734889287851585,4019.047619047619,1776.5567765567764,1.0,4.668734285459024,214.19081465281573,-4.549618320610687,-4.564885496183206,-2.549618320610687,-0.3523238380809595,0.2698650674662669,-0.4992503748125937,1288.6446886446886,96.97683936472413,34.4559041392291,
1771001484264.2798,-1.684782608695652,-5.456521739130435,1.1195652173913042,-4.29443447037702,-8.81867145421903,-1.2710951526032315,4033.6996336996335,1799.9999999999998,1.0,4.668734285459024,214.19081465281573,-4.641221374045801,-4.366412213740458,-2.3206106870229006,-0.3583208395802099,0.2608695652173913,-0.505247376311844,1350.9157509157508,96.9739779829979,34.4559041392291,
1771001484283.8118,-1.7065217391304348,-5.456521739130435,1.1195652173913042,-4.313584679832435,-8.828246558946738,-1.2591262716935967,4033.6996336996335,1806.5934065934064,1.0,4.668734285459024,214.19081465281573,-4.99236641221374,-2.519083969465649,-2.2748091603053435,-0.35982008995502246,0.2638680659670165,-0.5097451274362819,1461.5384615384614,96.97683936472413,34.4559041392291,
1771001484303.3438,-1.7065217391304348,-5.478260869565217,1.0869565217391304,-4.332734889287852,-8.854578096947936,-1.3046080191502094,4010.25641025641,1772.161172161172,1.0,4.668734285459024,214.19081465281573,-4.7328244274809155,-1.9389312977099236,-1.7862595419847327,-0.3613193403298351,0.2653673163418291,-0.5142428785607196,1586.080586080586,96.9739779829979,34.4559041392291,
1771001484322.8755,-1.717391304347826,-5.467391304347826,1.0869565217391304,-4.330341113105924,-8.845002992220227,-1.3117893476959903,4033.6996336996335,1798.5347985347985,1.0,4.668734285459024,214.19081465281573,-5.312977099236641,-4.3206106870229,-1.0381679389312977,-0.35982008995502246,0.2698650674662669,-0.4962518740629685,1690.10989010989,96.9739779829979,34.4559041392291,
1771001484342.4077,-1.6739130434782608,-5.5,1.108695652173913,-4.284859365649312,-8.864153201675643,-1.2902453620586476,4032.234432234432,1799.2673992673992,1.0,4.668734285459024,214.19081465281573,-4.809160305343512,-5.404580152671755,-0.4580152671755725,-0.3613193403298351,0.27136431784107945,-0.5187406296851574,1745.054945054945,96.9739779829979,34.4559041392291,
1771001484361.9397,-1.6304347826086956,-5.467391304347826,1.108695652173913,-4.2274087372830635,-8.8426092160383,-1.2974266906044285,4032.234432234432,1799.9999999999998,1.0,4.668734285459024,214.19081465281573,-5.267175572519084,-5.190839694656488,0.10687022900763359,-0.34782608695652173,0.2863568215892054,-0.5007496251874063,1723.0769230769229,96.9739779829979,34.4559041392291,
1771001484381.4714,-1.6521739130434783,-5.510869565217392,1.0978260869565217,-4.260921603830042,-8.878515858767205,-1.3285457809694794,4032.234432234432,1799.9999999999998,1.0,4.668734285459024,214.19081465281573,-5.541984732824427,-2.3664122137404577,0.24427480916030533,-0.3583208395802099,0.27436281859070466,-0.5112443778110944,1652.7472527472526,96.9739779829979,34.4559041392291,
1771001484401.0034,-1.6521739130434783,-5.532608695652174,0.9891304347826086,-4.22262118491921,-8.895272292040694,-1.3764213046080191,4020.5128205128203,1781.6849816849815,1.0,4.668734285459024,214.19081465281573,-5.603053435114504,-3.1755725190839694,0.16793893129770993,-0.36281859070464767,0.2653673163418291,-0.5097451274362819,1566.3003663003662,96.97683936472413,34.4559041392291,
1771001484420.5354,-1.641304347826087,-5.532608695652174,1.0217391304347825,-4.241771394374626,-8.909634949132256,-1.393177737881508,4005.8608058608056,1756.7765567765566,1.0,4.673839517045092,213.95685417804478,-5.893129770992366,-3.66412213740458,-0.5190839694656488,-0.3583208395802099,0.2578710644677661,-0.512743628185907,1473.260073260073,96.97683936472413,34.4559041392291,
1771001484440.0674,-1.5652173913043477,-5.532608695652174,1.0543478260869565,-4.148414123279474,-8.888090963494912,-1.3453022142429683,4032.234432234432,1787.5457875457873,1.0,4.668734285459024,214.19081465281573,-6.045801526717557,-2.1221374045801524,-0.42748091603053434,-0.3613193403298351,0.2623688155922039,-0.5082458770614693,1386.8131868131868,96.9776310724258,34.46092932867468,
1771001484459.5994,-1.4782608695652173,-5.489130434782608,1.065217391304348,-4.057450628366247,-8.840215439856372,-1.3381208856971873,4010.25641025641,1766.3003663003662,1.0,4.668734285459024,214.19081465281573,-5.877862595419847,2.0,-0.32061068702290074,-0.3658170914542728,0.2608695652173913,-0.5082458770614693,1316.4835164835165,96.98049248013271,34.46092932867468,
1771001484479.131,-1.5652173913043477,-5.456521739130435,1.0543478260869565,-4.124476361460204,-8.804308797127469,-1.3357271095152603,4032.234432234432,1783.8827838827838,1.0,4.668734285459024,214.19081465281573,-6.580152671755725,4.595419847328244,0.10687022900763359,-0.37181409295352325,0.27586206896551724,-0.5142428785607196,1279.8534798534797,96.9776310724258,34.46092932867468,
1771001484498.663,-1.5652173913043477,-5.4021739130434785,1.0217391304347825,-4.129263913824057,-8.754039497307001,-1.3500897666068223,4032.234432234432,1795.6043956043954,1.0,4.668734285459024,214.19081465281573,-6.290076335877862,4.824427480916031,-0.9618320610687022,-0.3523238380809595,0.272863568215892,-0.5142428785607196,1285.7142857142856,96.97476966754405,34.46092932867468,
1771001484518.1953,-1.5543478260869565,-5.423913043478261,1.0543478260869565,-4.1077199281867145,-8.77079593058049,-1.3692399760622382,4032.234432234432,1798.5347985347985,1.0,4.668734285459024,214.19081465281573,-6.351145038167939,4.870229007633587,-1.5267175572519083,-0.3583208395802099,0.2848575712143928,-0.5097451274362819,1320.8791208791208,96.9776310724258,34.46092932867468,
1771001484537.7273,-1.5,-5.467391304347826,1.0869565217391304,-4.1077199281867145,-8.804308797127469,-1.3309395571514062,4007.326007326007,1767.7655677655675,1.0,4.668734285459024,214.19081465281573,-6.229007633587786,6.198473282442748,-2.0610687022900764,-0.35532233883058467,0.272863568215892,-0.5067466266866567,1356.0439560439559,96.9776310724258,34.46092932867468,
1771001484557.2593,-1.4130434782608696,-5.489130434782608,1.108695652173913,-4.0119688809096345,-8.871334530221423,-1.3022142429682824,4032.234432234432,1791.2087912087911,1.0,4.673839517045092,213.95685417804478,-6.3969465648854955,11.770992366412214,-2.015267175572519,-0.3568215892053973,0.26686656671664166,-0.5022488755622189,1391.9413919413919,96.9776310724258,34.46092932867468,
1771001484576.7913,-1.3804347826086956,-5.478260869565217,1.1195652173913042,-3.925792938360263,-8.86654697785757,-1.2758827049670856,4004.395604395604,1758.2417582417581,1.0,4.668734285459024,214.19081465281573,-5.6183206106870225,20.27480916030534,-2.564885496183206,-0.35532233883058467,0.29985007496251875,-0.5172413793103449,1408.7912087912086,96.9776310724258,34.46092932867468,
1771001484596.3232,-1.5652173913043477,-5.489130434782608,1.076086956521739,-4.043087971274685,-8.854578096947936,-1.3093955715140635,4032.234432234432,1788.278388278388,1.0,4.668734285459024,214.19081465281573,-5.297709923664122,20.48854961832061,-2.7938931297709924,-0.3493253373313343,0.2653673163418291,-0.5037481259370314,1416.8498168498168,96.9776310724258,34.46092932867468,
1771001484615.8552,-1.6521739130434783,-5.510869565217392,1.0108695652173914,-4.2274087372830635,-8.880909634949132,-1.3764213046080191,4008.7912087912086,1759.7069597069597,1.0,4.668734285459024,214.19081465281573,-4.33587786259542,12.442748091603052,-3.1755725190839694,-0.3583208395802099,0.2788605697151424,-0.5007496251874063,1419.7802197802198,96.9776310724258,34.46092932867468,
1771001484635.3872,-1.5978260869565217,-5.554347826086956,1.076086956521739,-4.244165170556553,-8.916816277678038,-1.3333333333333333,4032.234432234432,1789.0109890109889,1.0,4.668734285459024,214.19081465281573,-3.297709923664122,2.8091603053435112,-3.3893129770992365,-0.3523238380809595,0.27136431784107945,-0.5142428785607196,1405.128205128205,96.9776310724258,34.46092932867468,
1771001484654.9192,-1.358695652173913,-5.565217391304348,1.2065217391304348,-3.980849790544584,-8.909634949132256,-1.2495511669658887,4032.234432234432,1797.069597069597,1.0,4.668734285459024,214.19081465281573,-2.854961832061069,3.0076335877862594,-3.3587786259541983,-0.3568215892053973,0.27136431784107945,-0.4962518740629685,1375.8241758241757,96.9862153040222,34.46092932867468,
1771001484674.4512,-1.358695652173913,-5.532608695652174,1.1739130434782608,-3.8803111909036505,-8.933572710951525,-1.199281867145422,4030.7692307692305,1803.6630036630036,1.0,4.668734285459024,214.19081465281573,-1.9083969465648853,9.786259541984732,-2.931297709923664,-0.3583208395802099,0.2773613193403298,-0.4992503748125937,1361.1721611721612,96.9776310724258,34.46092932867468,
1771001484693.9832,-1.4239130434782608,-5.467391304347826,1.065217391304348,-3.964093357271095,-8.892878515858767,-1.3117893476959903,4032.234432234432,1801.4652014652013,1.0,4.668734285459024,214.19081465281573,-0.48854961832061067,13.694656488549617,-3.2671755725190836,-0.36431784107946025,0.2593703148425787,-0.5037481259370314,1374.3589743589744,96.98335389066486,34.46092932867468,
1771001484713.5151,-1.4782608695652173,-5.391304347826087,1.0543478260869565,-4.067025733093955,-8.79473369239976,-1.3668461998803112,4032.234432234432,1799.9999999999998,1.0,4.668734285459024,214.19081465281573,0.2595419847328244,11.938931297709923,-4.061068702290076,-0.36431784107946025,0.26686656671664166,-0.5007496251874063,1393.4065934065934,96.97476966754405,34.46092932867468,
1771001484733.047,-1.4782608695652173,-5.445652173913043,1.0978260869565217,-4.076600837821664,-8.797127468581687,-1.3141831238779174,4032.234432234432,1799.9999999999998,1.0,4.668734285459024,214.19081465281573,0.3511450381679389,9.801526717557252,-4.396946564885496,-0.3538230884557721,0.2563718140929535,-0.5037481259370314,1402.197802197802,96.9776310724258,34.46092932867468,
1771001484752.579,-1.4130434782608696,-5.478260869565217,1.1195652173913042,-4.014362657091562,-8.845002992220227,-1.2734889287851585,4033.6996336996335,1806.5934065934064,1.0,4.668734285459024,214.19081465281573,-0.47328244274809156,10.65648854961832,-4.5038167938931295,-0.3568215892053973,0.2608695652173913,-0.5037481259370314,1420.5128205128203,96.9776310724258,34.46092932867468,
1771001484772.111,-1.315217391304348,-5.467391304347826,1.0108695652173914,-3.8515858767205264,-8.856971873129861,-1.3405146618791142,4010.25641025641,1771.4285714285713,1.0,4.668734285459024,214.19081465281573,-0.38167938931297707,17.587786259541986,-5.251908396946565,-0.3613193403298351,0.2608695652173913,-0.4992503748125937,1454.9450549450548,96.97476966754405,34.46092932867468,
1771001484791.6428,-1.5,-5.445652173913043,0.9239130434782609,-4.004787552363854,-8.821065230400958,-1.4841412327947336,4033.6996336996335,1798.5347985347985,1.0,4.668734285459024,214.19081465281573,-0.6870229007633587,22.106870229007633,-4.748091603053435,-0.3538230884557721,0.280359820089955,-0.4992503748125937,1506.227106227106,96.98049248013271,34.46092932867468,
1771001484811.1748,-1.641304347826087,-5.445652173913043,0.9130434782608695,-4.184320766008378,-8.801915020945541,-1.5176540993417116,4033.6996336996335,1805.8608058608058,1.0,4.668734285459024,214.19081465281573,-1.2671755725190839,21.419847328244273,-5.32824427480916,-0.36431784107946025,0.27586206896551724,-0.4977511244377811,1555.311355311355,96.9776310724258,34.46092932867468,
1771001484830.7068,-1.6956521739130435,-5.532608695652174,0.8478260869565217,-4.29443447037702,-8.907241172950329,-1.5391980849790545,4032.234432234432,1801.4652014652013,1.0,4.668734285459024,214.19081465281573,-1.7709923664122136,15.801526717557252,-5.694656488549618,-0.35532233883058467,0.2773613193403298,-0.5142428785607196,1586.080586080586,96.97190826548753,34.46092932867468,
1771001484850.2388,-1.5326086956521738,-5.554347826086956,0.8478260869565217,-4.134051466187912,-8.940754039497307,-1.6181926989826452,4032.234432234432,1800.7326007326005,1.0,4.668734285459024,214.19081465281573,-2.1068702290076335,13.007633587786259,-5.9541984732824424,-0.35082458770614694,0.2788605697151424,-0.5022488755622189,1602.9304029304028,96.9776310724258,34.46092932867468,
1771001484869.7708,-1.3804347826086956,-5.554347826086956,0.8260869565217391,-3.959305804907241,-8.955116696588869,-1.5966487133453022,4026.373626373626,1791.2087912087911,1.0,4.663629053872956,214.42528735632183,-1.984732824427481,14.854961832061068,-4.854961832061068,-0.35532233883058467,0.2698650674662669,-0.4962518740629685,1601.4652014652013,96.98335389066486,34.46092932867468,
1771001484889.3027,-1.4456521739130435,-5.510869565217392,0.7826086956521738,-3.992818671454219,-8.87372830640335,-1.646918013165769,4005.8608058608056,1759.7069597069597,1.0,4.663629053872956,214.42528735632183,-1.9389312977099236,19.96946564885496,-3.4198473282442747,-0.3568215892053973,0.29235382308845576,-0.5022488755622189,1581.6849816849815,96.98335389066486,34.46092932867468,
1771001484908.8347,-1.6304347826086956,-5.467391304347826,0.7065217391304348,-4.253740275284261,-8.816277678037103,-1.7570317175344106,4032.234432234432,1789.0109890109889,1.0,4.663629053872956,214.42528735632183,-1.7557251908396947,15.893129770992365,-2.183206106870229,-0.35982008995502246,0.2908545727136432,-0.5067466266866567,1574.3589743589744,96.98049248013271,34.46092932867468,
1771001484928.3667,-1.5326086956521738,-5.456521739130435,0.6956521739130435,-4.119688809096349,-8.837821663674447,-1.7330939557151406,4010.25641025641,1767.032967032967,1.0,4.668734285459024,214.19081465281573,-2.4427480916030535,7.129770992366412,-2.916030534351145,-0.34782608695652173,0.2638680659670165,-0.4947526236881559,1581.6849816849815,96.97476966754405,34.46092932867468,
1771001484947.8987,-1.4456521739130435,-5.489130434782608,0.7282608695652174,-4.033512866546978,-8.828246558946738,-1.6900059844404547,4035.164835164835,1797.8021978021977,1.0,4.663629053872956,214.42528735632183,-3.0534351145038165,2.5801526717557253,-2.595419847328244,-0.3568215892053973,0.2578710644677661,-0.4947526236881559,1619.7802197802196,96.98049248013271,34.46092932867468,
1771001484967.431,-1.4130434782608696,-5.532608695652174,0.8478260869565217,-3.973668461998803,-8.916816277678038,-1.644524236983842,4032.234432234432,1799.9999999999998,1.0,4.668734285459024,214.19081465281573,-4.198473282442748,-0.6717557251908397,-2.8244274809160306,-0.3583208395802099,0.2698650674662669,-0.5022488755622189,1677.6556776556774,96.97476966754405,34.46092932867468,
1771001484986.9626,-1.3695652173913042,-5.510869565217392,0.7826086956521738,-3.97606223818073,-8.892878515858767,-1.5918611609814481,4032.234432234432,1799.9999999999998,1.0,4.668734285459024,214.19081465281573,-5.404580152671755,-1.0381679389312977,-3.3587786259541983,-0.34782608695652173,0.27586206896551724,-0.4932533733133433,1772.8937728937728,96.97476966754405,34.46092932867468,
1771001485006.4946,-1.358695652173913,-5.521739130434782,0.7608695652173912,-3.8994614003590664,-8.91442250149611,-1.6923997606223817,4033.6996336996335,1806.5934065934064,1.0,4.668734285459024,214.19081465281573,-5.633587786259541,-0.48854961832061067,-2.900763358778626,-0.34632683658170915,0.27436281859070466,-0.5067466266866567,1877.6556776556774,96.9776310724258,34.46092932867468,
1771001485026.0266,-1.391304347826087,-5.521739130434782,0.7717391304347826,-3.9233991621783364,-8.897666068222621,-1.6708557749850388,4033.6996336996335,1808.058608058608,1.0,4.668734285459024,214.19081465281573,-5.862595419847328,-0.9465648854961831,-2.6564885496183206,-0.3523238380809595,0.2788605697151424,-0.4977511244377811,1958.2417582417581,96.97190826548753,34.46092932867468,
1771001485045.5586,-1.3695652173913042,-5.5,0.7391304347826086,-3.949730700179533,-8.933572710951525,-1.6636744464392579,4032.234432234432,1802.197802197802,1.0,4.668734285459024,214.19081465281573,-5.923664122137405,-3.2213740458015265,-2.610687022900763,-0.34632683658170915,0.26686656671664166,-0.4977511244377811,1985.3479853479853,96.9776310724258,34.46092932867468,
1771001485065.0906,-1.3369565217391304,-5.532608695652174,0.7934782608695652,-3.9114302812687014,-8.923997606223818,-1.67803710353082,4033.6996336996335,1806.5934065934064,1.0,4.668734285459024,214.19081465281573,-5.908396946564885,-2.8091603053435112,-2.931297709923664,-0.36281859070464767,0.26686656671664166,-0.5022488755622189,1942.8571428571427,96.9776310724258,34.46092932867468,
1771001485084.6226,-1.3043478260869565,-5.521739130434782,0.8152173913043478,-3.8491921005385996,-8.907241172950329,-1.613405146618791,4008.7912087912086,1765.5677655677655,1.0,4.668734285459024,214.19081465281573,-5.66412213740458,-1.9389312977099236,-3.2519083969465647,-0.3448275862068965,0.2863568215892054,-0.4917541229385307,1845.4212454212452,96.9776310724258,34.46092932867468,
1771001485104.1543,-1.3043478260869565,-5.532608695652174,0.8043478260869565,-3.8467983243566723,-8.919210053859963,-1.625374027528426,4005.8608058608056,1752.3809523809523,1.0,4.668734285459024,214.19081465281573,-6.259541984732824,-0.5190839694656488,-3.2519083969465647,-0.35082458770614694,0.2833583208395802,-0.4932533733133433,1718.6813186813185,96.9776310724258,34.46092932867468,
1771001485123.6863,-1.3043478260869565,-5.510869565217392,0.8369565217391304,-3.8611609814482346,-8.900059844404549,-1.5774985038898863,4032.234432234432,1786.8131868131868,1.0,4.668734285459024,214.19081465281573,-6.7328244274809155,-1.1908396946564885,-3.5572519083969465,-0.35532233883058467,0.2788605697151424,-0.505247376311844,1598.5347985347985,96.9862153040222,34.46092932867468,
1771001485143.2185,-1.391304347826087,-5.510869565217392,0.8152173913043478,-3.937761819269898,-8.909634949132256,-1.6086175942549372,4032.234432234432,1795.6043956043954,1.0,4.668734285459024,214.19081465281573,-7.526717557251908,-2.778625954198473,-3.114503816793893,-0.3523238380809595,0.2788605697151424,-0.5007496251874063,1509.1575091575091,96.9776310724258,34.46092932867468,
1771001485162.7505,-1.4239130434782608,-5.532608695652174,0.7717391304347826,-3.944943147815679,-8.907241172950329,-1.622980251346499,4032.234432234432,1799.2673992673992,1.0,4.668734285459024,214.19081465281573,-8.50381679389313,-3.7862595419847325,-3.16030534351145,-0.36281859070464767,0.27436281859070466,-0.5037481259370314,1445.4212454212454,96.9776310724258,34.46092932867468,
1771001485182.2825,-1.3369565217391304,-5.521739130434782,0.7934782608695652,-3.916217833632555,-8.912028725314183,-1.637342908438061,4024.9084249084244,1794.8717948717947,1.0,4.668734285459024,214.19081465281573,-7.633587786259541,-4.900763358778626,-3.3435114503816794,-0.3493253373313343,0.29535232383808097,-0.5067466266866567,1399.2673992673992,96.98049248013271,34.46092932867468,
1771001485201.8142,-1.315217391304348,-5.510869565217392,0.8478260869565217,-3.8946738479952123,-8.928785158587672,-1.5990424895272293,4002.9304029304026,1753.113553113553,1.0,4.673839517045092,213.95685417804478,-8.091603053435113,-4.885496183206107,-2.732824427480916,-0.3568215892053973,0.272863568215892,-0.5082458770614693,1358.974358974359,96.98049248013271,34.46092932867468,
1771001485221.3462,-1.2717391304347825,-5.489130434782608,0.8369565217391304,-3.8587672052663073,-8.864153201675643,-1.5535607420706163,4032.234432234432,1786.8131868131868,1.0,4.668734285459024,214.19081465281573,-8.305343511450381,-3.6030534351145036,-3.312977099236641,-0.3658170914542728,0.29535232383808097,-0.4917541229385307,1345.054945054945,96.98049248013271,34.46092932867468,
1771001485240.8782,-1.2717391304347825,-5.456521739130435,0.8913043478260869,-3.815679233991622,-8.811490125673249,-1.5152603231597845,4008.7912087912086,1759.7069597069597,1.0,4.673839517045092,213.95685417804478,-8.244274809160306,1.1908396946564885,-1.7251908396946565,-0.3568215892053973,0.2653673163418291,-0.49025487256371814,1349.4505494505493,96.9776310724258,34.46092932867468,
1771001485260.4102,-1.5652173913043477,-5.5,0.7065217391304348,-4.095751047277079,-8.87372830640335,-1.7139437462597247,4005.8608058608056,1750.18315018315,1.0,4.673839517045092,213.95685417804478,-10.183206106870228,4.824427480916031,0.0916030534351145,-0.34632683658170915,0.2653673163418291,-0.5022488755622189,1329.6703296703297,96.98335389066486,34.46092932867468,
1771001485279.942,-1.6630434782608696,-5.58695652173913,0.532608695652174,-4.272890484739677,-8.964691801316576,-1.8982645122681028,4032.234432234432,1786.8131868131868,1.0,4.673839517045092,213.95685417804478,-10.839694656488549,-0.061068702290076333,0.48854961832061067,-0.35532233883058467,0.2653673163418291,-0.48425787106446777,1291.5750915750914,96.9776310724258,34.46092932867468,
1771001485299.474,-1.5869565217391304,-5.554347826086956,0.6195652173913043,-4.22262118491921,-8.928785158587672,-1.82884500299222,4032.234432234432,1795.6043956043954,1.0,4.673839517045092,213.95685417804478,-9.526717557251908,-4.9465648854961835,0.9923664122137404,-0.35532233883058467,0.26686656671664166,-0.5037481259370314,1212.4542124542124,96.98049248013271,34.46092932867468,
1771001485319.006,-1.358695652173913,-5.521739130434782,0.6847826086956521,-3.916217833632555,-8.933572710951525,-1.8025134649910233,4032.234432234432,1799.2673992673992,1.0,4.673839517045092,213.95685417804478,-9.465648854961831,-5.66412213740458,-1.4045801526717556,-0.35532233883058467,0.2698650674662669,-0.5022488755622189,1104.029304029304,96.98335389066486,34.46092932867468,
1771001485338.538,-1.3695652173913042,-5.5,0.6304347826086957,-3.925792938360263,-8.87372830640335,-1.8312387791741471,4033.6996336996335,1805.8608058608058,1.0,4.673839517045092,213.95685417804478,-9.267175572519083,-0.33587786259541985,-0.42748091603053434,-0.3523238380809595,0.27586206896551724,-0.4992503748125937,1008.7912087912088,96.98049248013271,34.46092932867468,
1771001485358.07,-1.4239130434782608,-5.5,0.6956521739130435,-3.995212447636146,-8.868940754039498,-1.7785757031717535,4032.234432234432,1801.4652014652013,1.0,4.673839517045092,213.95685417804478,-9.282442748091603,3.679389312977099,1.282442748091603,-0.34782608695652173,0.2818590704647676,-0.5037481259370314,945.7875457875457,96.9776310724258,34.46092932867468,
1771001485377.602,-1.641304347826087,-5.434782608695652,0.6195652173913043,-4.114901256732495,-8.81867145421903,-1.8049072411729503,4033.6996336996335,1807.3260073260071,1.0,4.673839517045092,213.95685417804478,-9.17557251908397,4.351145038167939,2.6259541984732824,-0.35532233883058467,0.2818590704647676,-0.5037481259370314,928.2051282051282,96.98335389066486,34.46092932867468,
1771001485397.134,-1.3695652173913042,-5.5,0.5978260869565217,-4.1077199281867145,-8.852184320766009,-1.9437462597247157,4010.25641025641,1772.161172161172,1.0,4.673839517045092,213.95685417804478,-9.251908396946565,-0.7022900763358778,0.549618320610687,-0.3583208395802099,0.272863568215892,-0.4962518740629685,919.4139194139193,96.98049248013271,34.46092932867468,
1771001485416.666,-1.315217391304348,-5.489130434782608,0.6739130434782609,-3.8132854578096946,-8.885697187312987,-1.82884500299222,4033.6996336996335,1799.2673992673992,1.0,4.673839517045092,213.95685417804478,-8.305343511450381,0.6870229007633587,1.0229007633587786,-0.3583208395802099,0.2638680659670165,-0.4962518740629685,905.4945054945055,96.9776310724258,34.46092932867468,
1771001485436.198,-1.5108695652173914,-5.576086956521739,0.6521739130434783,-3.990424895272292,-8.892878515858767,-1.7690005984440453,4035.164835164835,1807.3260073260071,1.0,4.673839517045092,213.95685417804478,-8.244274809160306,3.83206106870229,1.1755725190839694,-0.35532233883058467,0.2653673163418291,-0.4932533733133433,947.985347985348,96.97604765942404,34.45087895007455,
1771001485455.73,-1.315217391304348,-5.510869565217392,0.7282608695652174,-4.004787552363854,-8.897666068222621,-1.7139437462597247,4032.234432234432,1802.197802197802,1.0,4.673839517045092,213.95685417804478,-6.687022900763359,3.3740458015267176,-0.24427480916030533,-0.3568215892053973,0.2653673163418291,-0.49025487256371814,1101.098901098901,96.97890902081991,34.45087895007455,
1771001485475.262,-1.3478260869565217,-5.554347826086956,0.6847826086956521,-3.815679233991622,-8.907241172950329,-1.7809694793536803,4033.6996336996335,1813.9194139194137,1.0,4.673839517045092,213.95685417804478,-6.824427480916031,5.648854961832061,-0.5954198473282443,-0.3583208395802099,0.27136431784107945,-0.5067466266866567,1254.212454212454,96.97604765942404,34.45087895007455,
1771001485494.794,-1.4456521739130435,-5.478260869565217,0.6956521739130435,-4.004787552363854,-8.86654697785757,-1.7091561938958706,4033.6996336996335,1810.2564102564102,1.0,4.678944748631159,213.72340425531914,-5.2824427480916025,4.687022900763359,-0.13740458015267176,-0.3523238380809595,0.280359820089955,-0.5037481259370314,1364.8351648351647,96.97604765942404,34.45087895007455,
1771001485514.326,-1.4130434782608696,-5.532608695652174,0.7065217391304348,-3.964093357271095,-8.912028725314183,-1.7713943746259724,4032.234432234432,1802.9304029304028,1.0,4.678944748631159,213.72340425531914,-4.885496183206107,3.297709923664122,-1.0534351145038168,-0.3583208395802099,0.27586206896551724,-0.4977511244377811,1404.3956043956043,96.98177038504089,34.45087895007455,
1771001485533.858,-1.4021739130434783,-5.521739130434782,0.7391304347826086,-3.968880909634949,-8.912028725314183,-1.6947935368043088,4033.6996336996335,1806.5934065934064,1.0,4.678944748631159,213.72340425531914,-3.145038167938931,4.793893129770992,-1.450381679389313,-0.3538230884557721,0.2893553223388306,-0.49025487256371814,1390.4761904761904,96.97318630085329,34.45087895007455,
1771001485553.39,-1.2282608695652173,-5.521739130434782,0.7934782608695652,-3.803710353081987,-8.912028725314183,-1.644524236983842,4010.25641025641,1771.4285714285713,1.0,4.678944748631159,213.72340425531914,-2.229007633587786,5.862595419847328,-3.2671755725190836,-0.3523238380809595,0.272863568215892,-0.4932533733133433,1347.2527472527472,96.98749312195818,34.45087895007455,
1771001485572.922,-1.3369565217391304,-5.445652173913043,0.8043478260869565,-3.8731298623578696,-8.81867145421903,-1.63016157989228,4033.6996336996335,1798.5347985347985,1.0,4.678944748631159,213.72340425531914,-1.114503816793893,8.458015267175572,-3.450381679389313,-0.34782608695652173,0.2608695652173913,-0.49025487256371814,1321.6117216117216,96.97604765942404,34.45087895007455,
1771001485592.454,-1.2934782608695652,-5.380434782608695,0.858695652173913,-3.8276481149012564,-8.751645721125074,-1.5631358467983243,4033.6996336996335,1805.8608058608058,1.0,4.678944748631159,213.72340425531914,0.13740458015267176,10.0,-3.847328244274809,-0.3403298350824588,0.30134932533733133,-0.48425787106446777,1334.7985347985348,96.97604765942404,34.45087895007455,
1771001485611.9858,-1.2282608695652173,-5.391304347826087,0.8152173913043478,-3.755834829443447,-8.768402154398563,-1.5870736086175943,4032.234432234432,1801.4652014652013,1.0,4.678944748631159,213.72340425531914,0.48854961832061067,12.396946564885496,-3.7557251908396947,-0.3493253373313343,0.2638680659670165,-0.4962518740629685,1343.5897435897434,96.98463175208698,34.45087895007455,
1771001485631.5176,-1.2608695652173914,-5.423913043478261,0.7934782608695652,-3.8276481149012564,-8.833034111310592,-1.611011370436864,4005.8608058608056,1761.9047619047617,1.0,4.684049980217227,213.49046321525884,0.8091603053435115,15.877862595419847,-3.4045801526717554,-0.3493253373313343,0.27136431784107945,-0.4947526236881559,1322.3443223443223,96.97032494510762,34.45087895007455,
1771001485651.0496,-1.1956521739130435,-5.489130434782608,0.8695652173913043,-3.760622381807301,-8.88330341113106,-1.5535607420706163,4029.304029304029,1787.5457875457873,1.0,4.684049980217227,213.49046321525884,1.114503816793893,17.923664122137403,-3.5572519083969465,-0.3493253373313343,0.27436281859070466,-0.4932533733133433,1292.3076923076922,96.97890902081991,34.45087895007455,
1771001485670.5815,-1.1521739130434783,-5.532608695652174,0.7717391304347826,-3.688809096349491,-8.888090963494912,-1.6971873129862358,4032.234432234432,1796.3369963369962,1.0,4.684049980217227,213.49046321525884,1.0534351145038168,23.297709923664122,-3.5725190839694654,-0.35532233883058467,0.280359820089955,-0.4872563718140929,1284.9816849816848,96.97890902081991,34.45087895007455,
1771001485690.1135,-1.2826086956521738,-5.5,0.6739130434782609,-3.810891681627768,-8.888090963494912,-1.7474566128067026,4032.234432234432,1799.2673992673992,1.0,4.684049980217227,213.49046321525884,1.9083969465648853,30.80916030534351,-3.114503816793893,-0.35082458770614694,0.2698650674662669,-0.48875562218890556,1326.007326007326,96.97890902081991,34.45087895007455,
1771001485709.6455,-1.2282608695652173,-5.510869565217392,0.5760869565217391,-3.7941352483542787,-8.904847396768401,-1.8551765409934171,4010.25641025641,1769.9633699633698,1.0,4.684049980217227,213.49046321525884,1.5419847328244274,33.862595419847324,-3.7862595419847325,-0.34632683658170915,0.29385307346326833,-0.49025487256371814,1419.7802197802198,96.97604765942404,34.45087895007455,
1771001485729.1775,-1.141304347826087,-5.532608695652174,0.5543478260869565,-3.688809096349491,-8.91442250149611,-1.9293836026331537,4032.234432234432,1791.9413919413919,1.0,4.684049980217227,213.49046321525884,2.229007633587786,39.52671755725191,-3.679389312977099,-0.34782608695652173,0.26686656671664166,-0.49025487256371814,1542.1245421245421,96.98177038504089,34.45087895007455,
1771001485748.7097,-1.0108695652173914,-5.543478260869565,0.45652173913043476,-3.523638539796529,-8.923997606223818,-1.9988031119090364,4032.234432234432,1797.8021978021977,1.0,4.689155211803296,213.25802939575394,3.5877862595419847,50.45801526717557,-3.6488549618320607,-0.3523238380809595,0.2623688155922039,-0.4767616191904048,1665.201465201465,96.97890902081991,34.45087895007455,
1771001485768.2417,-0.75,-5.5978260869565215,0.45652173913043476,-3.279473369239976,-9.005385996409336,-1.9964093357271095,4029.304029304029,1797.8021978021977,1.0,4.689155211803296,213.25802939575394,4.580152671755725,65.74045801526718,-3.9083969465648853,-0.34182908545727136,0.2788605697151424,-0.48575712143928035,1739.194139194139,96.97604765942404,34.45087895007455,
1771001485787.7734,-0.6739130434782609,-5.576086956521739,0.3804347826086956,-3.1956912028725313,-8.967085577498503,-2.120885697187313,4032.234432234432,1799.2673992673992,1.0,4.689155211803296,213.25802939575394,6.931297709923664,88.36641221374046,-3.1908396946564883,-0.3448275862068965,0.2698650674662669,-0.46926536731634183,1749.4505494505493,96.98177038504089,34.45087895007455,
1771001485807.3054,-1.2934782608695652,-5.510869565217392,0.06521739130434782,-3.454219030520646,-8.871334530221423,-2.2501496110113703,4032.234432234432,1799.9999999999998,1.0,4.689155211803296,213.25802939575394,6.1679389312977095,102.0,-2.2442748091603053,-0.33883058470764615,0.2773613193403298,-0.4662668665667166,1720.14652014652,96.98177038504089,34.45087895007455,
1771001485826.8374,-1.315217391304348,-5.489130434782608,0.021739130434782608,-3.985637342908438,-8.945541591861161,-2.503889886295631,4002.9304029304026,1754.5787545787546,1.0,4.689155211803296,213.25802939575394,6.946564885496183,92.03053435114504,-0.8854961832061068,-0.3448275862068965,0.2863568215892054,-0.47826086956521735,1694.5054945054944,96.97318630085329,34.45087895007455,
1771001485846.3694,-1.0869565217391304,-5.543478260869565,0.0,-3.746259724715739,-8.871334530221423,-2.546977857570317,4030.7692307692305,1791.9413919413919,1.0,4.689155211803296,213.25802939575394,7.312977099236641,78.01526717557252,-3.4198473282442747,-0.3403298350824588,0.2773613193403298,-0.4707646176911544,1665.201465201465,96.97604765942404,34.45087895007455,
1771001485865.9014,-0.9782608695652174,-5.5978260869565215,-0.021739130434782608,-3.559545182525434,-8.967085577498503,-2.558946738479952,4008.7912087912086,1761.172161172161,1.0,4.689155211803296,213.25802939575394,6.99236641221374,66.6412213740458,-3.4045801526717554,-0.335832083958021,0.2788605697151424,-0.46026986506746626,1611.7216117216117,96.97318630085329,34.45087895007455,
1771001485885.433,-0.6847826086956521,-5.6521739130434785,0.03260869565217391,-3.4039497307001794,-8.998204667863554,-2.4799521244763616,4004.395604395604,1749.4505494505493,1.0,4.689155211803296,213.25802939575394,5.603053435114504,59.77099236641221,-2.0763358778625953,-0.33433283358320837,0.27436281859070466,-0.45277361319340326,1531.8681318681317,96.97318630085329,34.45087895007455,
1771001485904.965,-0.5217391304347826,-5.673913043478261,0.021739130434782608,-3.044883303411131,-9.060442848593656,-2.4727707959305802,4032.234432234432,1786.080586080586,1.0,4.689155211803296,213.25802939575394,5.038167938931298,64.50381679389312,-2.519083969465649,-0.32533733133433285,0.2788605697151424,-0.46176911544227883,1460.8058608058607,96.98177038504089,34.45087895007455,
1771001485924.4973,-0.5434782608695652,-5.630434782608695,-0.09782608695652173,-3.032914422501496,-9.060442848593656,-2.594853381208857,4030.7692307692305,1799.9999999999998,1.0,4.689155211803296,213.25802939575394,3.66412213740458,75.26717557251908,-0.8091603053435115,-0.32533733133433285,0.2623688155922039,-0.4482758620689655,1436.6300366300366,96.97318630085329,34.45087895007455,
1771001485944.0293,-0.5434782608695652,-5.619565217391304,-0.2391304347826087,-3.0041891083183723,-9.048473967684021,-2.7145421903052065,4032.234432234432,1799.9999999999998,1.0,4.689155211803296,213.25802939575394,3.236641221374046,80.56488549618321,-0.5343511450381679,-0.32083958020989506,0.2638680659670165,-0.4482758620689655,1468.131868131868,96.97604765942404,34.45087895007455,
1771001485963.5613,-0.5869565217391304,-5.630434782608695,-0.2391304347826087,-3.06163973668462,-9.050867743865949,-2.7648114901256733,4029.304029304029,1798.5347985347985,1.0,4.689155211803296,213.25802939575394,2.4427480916030535,82.45801526717557,-0.5038167938931297,-0.3238380809595202,0.26836581709145424,-0.4467766116941529,1526.007326007326,96.97318630085329,34.45087895007455,
1771001485983.0933,-0.45652173913043476,-5.608695652173913,-0.2717391304347826,-2.98982645122681,-9.038898862956314,-2.795930580490724,4032.234432234432,1799.9999999999998,1.0,4.689155211803296,213.25802939575394,2.5343511450381677,78.36641221374046,-0.6564885496183206,-0.3298350824587706,0.2773613193403298,-0.44377811094452774,1592.6739926739926,96.97604765942404,34.45087895007455,
1771001486002.6252,-0.41304347826086957,-5.608695652173913,-0.2608695652173913,-2.9060442848593655,-9.010173548773189,-2.79114302812687,4032.234432234432,1799.9999999999998,1.0,4.689155211803296,213.25802939575394,2.2900763358778624,73.2824427480916,-0.8396946564885496,-0.3238380809595202,0.27586206896551724,-0.4287856071964018,1649.8168498168498,96.97032494510762,34.45087895007455,
1771001486022.1572,-0.358695652173913,-5.58695652173913,-0.2934782608695652,-2.817474566128067,-8.991023339317774,-2.848593656493118,4008.7912087912086,1764.102564102564,1.0,4.694260443389363,213.02610114192495,1.9083969465648853,65.74045801526718,-1.4198473282442747,-0.31784107946026985,0.2863568215892054,-0.4287856071964018,1671.7948717948716,96.97604765942404,34.45087895007455,
1771001486041.689,-0.2934782608695652,-5.5978260869565215,-0.2608695652173913,-2.7528426092160383,-9.000598444045481,-2.812687013764213,4033.6996336996335,1796.3369963369962,1.0,4.694260443389363,213.02610114192495,1.3129770992366412,59.51145038167939,-1.83206106870229,-0.328335832083958,0.272863568215892,-0.4287856071964018,1658.6080586080584,96.97604765942404,34.45087895007455,
1771001486061.221,-0.33695652173913043,-5.576086956521739,-0.2717391304347826,-2.7672052663076,-9.01735487731897,-2.800718132854578,4032.234432234432,1798.5347985347985,1.0,4.689155211803296,213.25802939575394,0.16793893129770993,52.15267175572519,-2.1374045801526718,-0.3118440779610195,0.2893553223388306,-0.4287856071964018,1629.3040293040292,96.97318630085329,34.45087895007455,
1771001486080.753,-0.2934782608695652,-5.576086956521739,-0.2934782608695652,-2.7887492519449433,-8.981448234590065,-2.819868342309994,4032.234432234432,1799.2673992673992,1.0,4.689155211803296,213.25802939575394,-0.48854961832061067,41.46564885496183,-2.748091603053435,-0.31784107946026985,0.2608695652173913,-0.42278860569715143,1600.7326007326005,96.98177038504089,34.45087895007455,
1771001486100.285,-0.2826086956521739,-5.576086956521739,-0.358695652173913,-2.755236385397965,-8.98623578695392,-2.9036505086774387,4032.234432234432,1799.9999999999998,1.0,4.689155211803296,213.25802939575394,-1.465648854961832,27.14503816793893,-4.244274809160305,-0.31334332833583206,0.280359820089955,-0.424287856071964,1567.032967032967,96.97318630085329,34.45087895007455,
1771001486119.817,-0.31521739130434784,-5.630434782608695,-0.3913043478260869,-2.795930580490724,-9.03411131059246,-2.9251944943147814,4032.234432234432,1799.9999999999998,1.0,4.689155211803296,213.25802939575394,-0.8549618320610687,14.213740458015266,-4.229007633587786,-0.3193403298350824,0.27586206896551724,-0.42278860569715143,1538.4615384615383,96.97604765942404,34.45087895007455,
1771001486139.3489,-0.15217391304347827,-5.630434782608695,-0.3913043478260869,-2.625972471573908,-9.04129263913824,-2.9275882704967087,4032.234432234432,1799.9999999999998,1.0,4.694260443389363,213.02610114192495,-0.16793893129770993,4.442748091603053,-4.717557251908397,-0.32233883058470764,0.272863568215892,-0.42278860569715143,1517.216117216117,96.97604765942404,34.45087895007455,
1771001486158.8809,-0.06521739130434782,-5.739130434782608,-0.33695652173913043,-2.5302214242968284,-9.156193895870736,-2.8964691801316578,4032.234432234432,1799.9999999999998,1.0,4.694260443389363,213.02610114192495,0.564885496183206,-0.2595419847328244,-5.068702290076335,-0.3238380809595202,0.26836581709145424,-0.4197901049475262,1507.6923076923076,96.97318630085329,34.45087895007455,
1771001486178.4128,-0.11956521739130435,-5.695652173913043,-0.358695652173913,-2.542190305206463,-9.16098144823459,-2.8701376421304605,4008.7912087912086,1763.3699633699632,1.0,4.689155211803296,213.25802939575394,-0.13740458015267176,-1.0229007633587786,-6.458015267175572,-0.31784107946026985,0.280359820089955,-0.4257871064467766,1505.4945054945053,96.97890902081991,34.45087895007455,
1771001486197.9448,-0.19565217391304346,-5.641304347826087,-0.32608695652173914,-2.669060442848594,-9.024536205864752,-2.9012567324955114,4005.8608058608056,1751.6483516483515,1.0,4.689155211803296,213.25802939575394,-0.061068702290076333,2.0,-4.427480916030534,-0.3328335832083958,0.2893553223388306,-0.4257871064467766,1513.5531135531135,96.97318630085329,34.45087895007455,
1771001486217.4768,-0.19565217391304346,-5.6521739130434785,-0.33695652173913043,-2.6810293237582283,-9.07241172950329,-2.8964691801316578,4032.234432234432,1786.080586080586,1.0,4.694260443389363,213.02610114192495,-0.366412213740458,2.7022900763358777,-4.549618320610687,-0.31784107946026985,0.2908545727136432,-0.4212893553223388,1533.3333333333333,96.97318630085329,34.45087895007455,
1771001486237.0088,-0.15217391304347827,-5.673913043478261,-0.3913043478260869,-2.573309395571514,-9.036505086774387,-2.9491322561340514,4030.7692307692305,1800.7326007326005,1.0,4.694260443389363,213.02610114192495,0.48854961832061067,-1.5267175572519083,-4.396946564885496,-0.32083958020989506,0.2623688155922039,-0.4212893553223388,1568.4981684981683,96.97318630085329,34.45087895007455,
1771001486256.5408,-0.22826086956521738,-5.706521739130435,-0.33695652173913043,-2.6666666666666665,-9.141831238779174,-2.8940754039497305,4032.234432234432,1799.9999999999998,1.0,4.694260443389363,213.02610114192495,-0.6106870229007634,-0.9618320610687022,-4.824427480916031,-0.3268365817091454,0.26686656671664166,-0.416791604197901,1584.6153846153845,96.97604765942404,34.45087895007455,
1771001486276.0728,-0.17391304347826086,-5.673913043478261,-0.2826086956521739,-2.621184919210054,-9.122681029323758,-2.848593656493118,4030.7692307692305,1804.3956043956043,1.0,4.694260443389363,213.02610114192495,-1.1755725190839694,-2.9618320610687023,-5.114503816793893,-0.31334332833583206,0.2698650674662669,-0.416791604197901,1572.8937728937728,96.97604765942404,34.45087895007455,
1771001486295.6047,-0.06521739130434782,-5.5978260869565215,-0.32608695652173914,-2.602034709754638,-9.031717534410532,-2.884500299222023,4002.9304029304026,1755.311355311355,1.0,4.694260443389363,213.02610114192495,-2.0610687022900764,-2.33587786259542,-4.900763358778626,-0.3193403298350824,0.2788605697151424,-0.4332833583208396,1554.5787545787546,96.97032494510762,34.45087895007455,
1771001486315.1367,-0.07608695652173914,-5.5978260869565215,-0.358695652173913,-2.511071214841412,-9.022142429682825,-2.9180131657690005,4032.234432234432,1787.5457875457873,1.0,4.694260443389363,213.02610114192495,-2.916030534351145,-0.6870229007633587,-5.206106870229007,-0.3238380809595202,0.2788605697151424,-0.41829085457271364,1542.8571428571427,96.97032494510762,34.45087895007455,
1771001486334.6687,-0.20652173913043478,-5.576086956521739,-0.358695652173913,-2.6116098144823456,-8.983842010771992,-2.9275882704967087,4007.326007326007,1764.8351648351647,1.0,4.694260443389363,213.02610114192495,-3.7404580152671754,0.33587786259541985,-3.8167938931297707,-0.32083958020989506,0.2788605697151424,-0.4332833583208396,1542.8571428571427,96.98177038504089,34.45087895007455,
1771001486354.2007,-0.20652173913043478,-5.619565217391304,-0.34782608695652173,-2.6882106523040097,-9.026929982046678,-2.9323758228605623,4004.395604395604,1750.9157509157508,1.0,4.694260443389363,213.02610114192495,-3.83206106870229,-2.5801526717557253,-2.5801526717557253,-0.32533733133433285,0.27436281859070466,-0.41379310344827586,1549.4505494505493,96.97604765942404,34.45087895007455,
1771001486373.733,-0.21739130434782608,-5.663043478260869,-0.32608695652173914,-2.6834230999401556,-9.048473967684021,-2.9036505086774387,4032.234432234432,1786.080586080586,1.0,4.694260443389363,213.02610114192495,-4.5038167938931295,-7.068702290076335,-2.610687022900763,-0.3238380809595202,0.2653673163418291,-0.4212893553223388,1544.3223443223442,96.97890902081991,34.45087895007455,
1771001486393.2646,-0.20652173913043478,-5.706521739130435,-0.31521739130434784,-2.6427289048473965,-9.105924596050269,-2.8557749850388987,4030.7692307692305,1800.7326007326005,1.0,4.694260443389363,213.02610114192495,-5.145038167938931,-11.038167938931297,-2.4732824427480917,-0.31784107946026985,0.272863568215892,-0.4287856071964018,1564.8351648351647,96.97890902081991,34.45087895007455,
1771001486412.7966,-0.11956521739130435,-5.684782608695652,-0.22826086956521738,-2.558946738479952,-9.110712148414123,-2.803111909036505,4030.7692307692305,1804.3956043956043,1.0,4.694260443389363,213.02610114192495,-6.3206106870229,-13.007633587786259,-2.7938931297709924,-0.3238380809595202,0.2773613193403298,-0.4332833583208396,1616.8498168498168,96.97604765942404,34.45087895007455,
1771001486432.3286,-0.22826086956521738,-5.684782608695652,-0.2391304347826087,-2.6523040095751047,-9.108318372232196,-2.781567923399162,4032.234432234432,1801.4652014652013,1.0,4.694260443389363,213.02610114192495,-6.427480916030534,-8.961832061068701,-2.916030534351145,-0.3268365817091454,0.2653673163418291,-0.4257871064467766,1686.4468864468863,96.97683936472413,34.4559041392291,
1771001486451.8604,-0.15217391304347827,-5.684782608695652,-0.22826086956521738,-2.618791143028127,-9.06523040095751,-2.7528426092160383,4030.7692307692305,1805.128205128205,1.0,4.699365674975432,212.79467680608363,-6.3206106870229,-4.7328244274809155,-2.4580152671755724,-0.32083958020989506,0.272863568215892,-0.424287856071964,1736.263736263736,96.9797007492755,34.4559041392291,
1771001486471.3923,-0.20652173913043478,-5.673913043478261,-0.19565217391304346,-2.6163973668461997,-9.110712148414123,-2.748055056852184,4032.234432234432,1794.8717948717947,1.0,4.694260443389363,213.02610114192495,-6.183206106870228,-2.0610687022900764,-3.2213740458015265,-0.31784107946026985,0.280359820089955,-0.42728635682158916,1757.5091575091574,96.97683936472413,34.4559041392291,
1771001486490.9243,-0.15217391304347827,-5.695652173913043,-0.17391304347826086,-2.587672052663076,-9.110712148414123,-2.7121484141232792,4008.7912087912086,1761.9047619047617,1.0,4.694260443389363,213.02610114192495,-5.816793893129771,-1.2519083969465647,-2.5343511450381677,-0.3268365817091454,0.2848575712143928,-0.424287856071964,1717.216117216117,96.9797007492755,34.4559041392291,
1771001486510.4563,-0.16304347826086957,-5.695652173913043,-0.21739130434782608,-2.609216038300419,-9.101137043686416,-2.7121484141232792,4032.234432234432,1789.0109890109889,1.0,4.694260443389363,213.02610114192495,-5.694656488549618,-1.099236641221374,-2.595419847328244,-0.32233883058470764,0.2848575712143928,-0.43178410794602695,1640.2930402930401,96.97683936472413,34.4559041392291,
1771001486529.9883,-0.22826086956521738,-5.663043478260869,-0.19565217391304346,-2.649910233393178,-9.067624177139438,-2.736086175942549,4032.234432234432,1797.069597069597,1.0,4.699365674975432,212.79467680608363,-6.030534351145038,-7.0534351145038165,-2.9770992366412212,-0.3298350824587706,0.2833583208395802,-0.42278860569715143,1565.5677655677655,96.97683936472413,34.4559041392291,
1771001486549.5205,-0.2826086956521739,-5.695652173913043,-0.16304347826086957,-2.750448833034111,-9.098743267504489,-2.6786355475763015,4032.234432234432,1799.2673992673992,1.0,4.694260443389363,213.02610114192495,-6.549618320610687,-15.099236641221374,-3.099236641221374,-0.31334332833583206,0.27436281859070466,-0.4332833583208396,1491.5750915750914,96.9739779829979,34.4559041392291,
1771001486569.0522,-0.14130434782608695,-5.695652173913043,-0.11956521739130435,-2.597247157390784,-9.127468581687612,-2.633153800119689,4005.8608058608056,1761.172161172161,1.0,4.694260443389363,213.02610114192495,-6.671755725190839,-19.603053435114504,-3.5877862595419847,-0.328335832083958,0.27436281859070466,-0.4257871064467766,1418.3150183150183,96.97111660409682,34.4559041392291,
1771001486588.5842,-0.043478260869565216,-5.717391304347826,-0.11956521739130435,-2.4823459006582884,-9.153800119688809,-2.6475164572112506,4030.7692307692305,1793.4065934065932,1.0,4.699365674975432,212.79467680608363,-6.33587786259542,-17.419847328244273,-2.9770992366412212,-0.32233883058470764,0.29985007496251875,-0.43778110944527737,1357.5091575091574,96.96825522802091,34.4559041392291,
1771001486608.1162,-0.043478260869565216,-5.706521739130435,-0.16304347826086957,-2.4679832435667266,-9.141831238779174,-2.6762417713943747,4032.234432234432,1797.8021978021977,1.0,4.694260443389363,213.02610114192495,-5.557251908396946,-11.572519083969466,-2.8702290076335877,-0.3193403298350824,0.2833583208395802,-0.43478260869565216,1332.6007326007325,96.9739779829979,34.4559041392291,
1771001486627.6482,-0.08695652173913043,-5.695652173913043,-0.13043478260869565,-2.5182525433871934,-9.122681029323758,-2.6953919808497906,4032.234432234432,1799.2673992673992,1.0,4.694260443389363,213.02610114192495,-4.748091603053435,-6.3206106870229,-3.3740458015267176,-0.32533733133433285,0.280359820089955,-0.43478260869565216,1343.5897435897434,96.97683936472413,34.4559041392291,
1771001486647.1802,-0.13043478260869565,-5.684782608695652,-0.16304347826086957,-2.578096947935368,-9.098743267504489,-2.7217235188509874,4008.7912087912086,1763.3699633699632,1.0,4.694260443389363,213.02610114192495,-3.114503816793893,-3.4045801526717554,-3.5725190839694654,-0.32233883058470764,0.27436281859070466,-0.4422788605697151,1367.7655677655678,96.97683936472413,34.4559041392291,
1771001486666.7122,-0.09782608695652173,-5.663043478260869,-0.13043478260869565,-2.556552962298025,-9.093955715140634,-2.6882106523040097,4033.6996336996335,1796.3369963369962,1.0,4.694260443389363,213.02610114192495,-2.5343511450381677,-1.648854961832061,-3.5267175572519083,-0.32233883058470764,0.2833583208395802,-0.4302848575712144,1386.080586080586,96.97111660409682,34.4559041392291,
1771001486686.244,-0.10869565217391304,-5.663043478260869,-0.21739130434782608,-2.5374027528426093,-9.096349491322561,-2.7169359664871333,4032.234432234432,1799.2673992673992,1.0,4.694260443389363,213.02610114192495,-2.1374045801526718,0.07633587786259542,-4.061068702290076,-0.32083958020989506,0.29985007496251875,-0.4467766116941529,1397.8021978021977,96.97683936472413,34.4559041392291,
1771001486705.776,-0.17391304347826086,-5.684782608695652,-0.18478260869565216,-2.585278276481149,-9.11310592459605,-2.7384799521244765,4032.234432234432,1799.2673992673992,1.0,4.694260443389363,213.02610114192495,-2.595419847328244,1.7251908396946565,-4.33587786259542,-0.3268365817091454,0.27436281859070466,-0.42278860569715143,1410.989010989011,96.96825522802091,34.4559041392291,
1771001486725.308,-0.15217391304347827,-5.695652173913043,-0.22826086956521738,-2.582884500299222,-9.108318372232196,-2.760023937761819,4033.6996336996335,1806.5934065934064,1.0,4.694260443389363,213.02610114192495,-1.8931297709923662,4.137404580152672,-4.809160305343512,-0.32083958020989506,0.2653673163418291,-0.43778110944527737,1429.3040293040292,96.9797007492755,34.4559041392291,
1771001486744.84,-0.15217391304347827,-5.706521739130435,-0.2717391304347826,-2.575703171753441,-9.105924596050269,-2.812687013764213,4032.234432234432,1802.197802197802,1.0,4.694260443389363,213.02610114192495,-2.2900763358778624,5.419847328244274,-4.748091603053435,-0.3328335832083958,0.2893553223388306,-0.43628185907046474,1443.956043956044,96.9739779829979,34.4559041392291,
1771001486764.372,-0.19565217391304346,-5.695652173913043,-0.34782608695652173,-2.6235786953919806,-9.101137043686416,-2.8629563135846796,4032.234432234432,1800.7326007326005,1.0,4.694260443389363,213.02610114192495,-3.16030534351145,4.595419847328244,-4.916030534351145,-0.32083958020989506,0.2698650674662669,-0.43178410794602695,1446.153846153846,96.97111660409682,34.4559041392291,
1771001486783.904,-0.2391304347826087,-5.695652173913043,-0.358695652173913,-2.6882106523040097,-9.12028725314183,-2.9108318372232196,4032.234432234432,1800.7326007326005,1.0,4.694260443389363,213.02610114192495,-3.4045801526717554,-1.0076335877862594,-5.1603053435114505,-0.3238380809595202,0.26836581709145424,-0.43628185907046474,1441.7582417582416,96.97683936472413,34.4559041392291,
1771001486803.436,-0.30434782608695654,-5.673913043478261,-0.3913043478260869,-2.7456612806702574,-9.117893476959903,-2.9156193895870737,4008.7912087912086,1763.3699633699632,1.0,4.694260443389363,213.02610114192495,-4.427480916030534,-7.541984732824427,-4.99236641221374,-0.3298350824587706,0.2818590704647676,-0.43478260869565216,1436.6300366300366,96.98256213665204,34.4559041392291,
1771001486822.968,-0.17391304347826086,-5.695652173913043,-0.3804347826086956,-2.6427289048473965,-9.101137043686416,-2.9156193895870737,4033.6996336996335,1796.3369963369962,1.0,4.689155211803296,213.25802939575394,-4.778625954198473,-10.381679389312977,-4.442748091603053,-0.3328335832083958,0.280359820089955,-0.4302848575712144,1424.1758241758241,96.9797007492755,34.4559041392291,
1771001486842.5,-0.10869565217391304,-5.695652173913043,-0.3804347826086956,-2.551765409934171,-9.103530819868341,-2.9419509275882705,4033.6996336996335,1805.128205128205,1.0,4.694260443389363,213.02610114192495,-5.267175572519084,-8.717557251908397,-3.2671755725190836,-0.3313343328335832,0.2818590704647676,-0.4287856071964018,1413.9194139194137,96.97111660409682,34.4559041392291,
1771001486862.032,-0.13043478260869565,-5.684782608695652,-0.3695652173913043,-2.542190305206463,-9.108318372232196,-2.939557151406343,4032.234432234432,1801.4652014652013,1.0,4.694260443389363,213.02610114192495,-5.923664122137405,-5.190839694656488,-2.4427480916030535,-0.3193403298350824,0.2773613193403298,-0.4332833583208396,1416.117216117216,96.97683936472413,34.4559041392291,
1771001486881.5637,-0.17391304347826086,-5.663043478260869,-0.3695652173913043,-2.597247157390784,-9.08916816277678,-2.9299820466786355,4033.6996336996335,1806.5934065934064,1.0,4.694260443389363,213.02610114192495,-5.572519083969466,-2.2900763358778624,-2.8244274809160306,-0.32233883058470764,0.30134932533733133,-0.43478260869565216,1426.3736263736262,96.9797007492755,34.4559041392291,
1771001486901.0957,-0.15217391304347827,-5.6521739130434785,-0.33695652173913043,-2.580490724117295,-9.062836624775583,-2.9180131657690005,4033.6996336996335,1808.058608058608,1.0,4.694260443389363,213.02610114192495,-5.557251908396946,-0.9007633587786259,-2.8091603053435112,-0.328335832083958,0.27136431784107945,-0.43628185907046474,1410.989010989011,96.97683936472413,34.4559041392291,
1771001486920.6277,-0.11956521739130435,-5.706521739130435,-0.31521739130434784,-2.563734290843806,-9.132256134051467,-2.884500299222023,4032.234432234432,1802.197802197802,1.0,4.694260443389363,213.02610114192495,-5.694656488549618,1.1450381679389312,-2.9618320610687023,-0.32233883058470764,0.27136431784107945,-0.43478260869565216,1397.069597069597,96.98256213665204,34.4559041392291,
1771001486940.1597,-0.15217391304347827,-5.684782608695652,-0.32608695652173914,-2.609216038300419,-9.125074805505685,-2.8749251944943146,4032.234432234432,1800.7326007326005,1.0,4.694260443389363,213.02610114192495,-5.938931297709924,3.847328244274809,-3.145038167938931,-0.32233883058470764,0.26836581709145424,-0.43478260869565216,1381.6849816849815,96.98256213665204,34.4559041392291,
1771001486959.6917,-0.15217391304347827,-5.673913043478261,-0.2826086956521739,-2.597247157390784,-9.105924596050269,-2.853381208856972,4008.7912087912086,1764.102564102564,1.0,4.694260443389363,213.02610114192495,-5.908396946564885,6.687022900763359,-3.4198473282442747,-0.328335832083958,0.2773613193403298,-0.43178410794602695,1368.4981684981683,96.98256213665204,34.4559041392291,
1771001486979.2236,-0.13043478260869565,-5.684782608695652,-0.2608695652173913,-2.573309395571514,-9.08916816277678,-2.841412327947337,4032.234432234432,1789.7435897435896,1.0,4.689155211803296,213.25802939575394,-5.709923664122138,9.068702290076336,-3.32824427480916,-0.3313343328335832,0.2788605697151424,-0.43928035982008995,1355.3113553113553,96.97683936472413,34.4559041392291,
1771001486998.7556,-0.14130434782608695,-5.663043478260869,-0.2608695652173913,-2.56852184320766,-9.07241172950329,-2.848593656493118,4032.234432234432,1796.3369963369962,1.0,4.689155211803296,213.25802939575394,-6.3206106870229,11.740458015267174,-2.5343511450381677,-0.3298350824587706,0.2833583208395802,-0.43178410794602695,1340.6593406593406,96.97683936472413,34.4559041392291,
1771001487018.2876,-0.16304347826086957,-5.663043478260869,-0.2826086956521739,-2.621184919210054,-9.074805505685218,-2.795930580490724,4029.304029304029,1797.069597069597,1.0,4.689155211803296,213.25802939575394,-6.0,11.84732824427481,-2.5343511450381677,-0.3313343328335832,0.27436281859070466,-0.4302848575712144,1331.8681318681317,96.97683936472413,34.4559041392291,
1771001487037.8196,-0.2391304347826087,-5.717391304347826,-0.2391304347826087,-2.7025733093955715,-9.141831238779174,-2.7767803710353083,4032.234432234432,1799.2673992673992,1.0,4.694260443389363,213.02610114192495,-6.381679389312977,7.83206106870229,-1.8931297709923662,-0.32233883058470764,0.272863568215892,-0.4332833583208396,1339.9267399267399,96.97683936472413,34.4559041392291,
1771001487057.3516,-0.25,-5.695652173913043,-0.2608695652173913,-2.6762417713943747,-9.117893476959903,-2.812687013764213,4032.234432234432,1799.9999999999998,1.0,4.689155211803296,213.25802939575394,-6.580152671755725,1.3282442748091603,-1.7251908396946565,-0.3268365817091454,0.2698650674662669,-0.43178410794602695,1364.8351648351647,96.97111660409682,34.4559041392291,
1771001487076.8835,-0.17391304347826086,-5.728260869565217,-0.2391304347826087,-2.625972471573908,-9.13704368641532,-2.781567923399162,4032.234432234432,1799.9999999999998,1.0,4.694260443389363,213.02610114192495,-6.427480916030534,-2.33587786259542,-0.9465648854961831,-0.3313343328335832,0.26836581709145424,-0.4287856071964018,1413.9194139194137,96.9797007492755,34.4559041392291,
1771001487096.4155,-0.11956521739130435,-5.717391304347826,-0.25,-2.587672052663076,-9.149012567324954,-2.793536804308797,4030.7692307692305,1804.3956043956043,1.0,4.689155211803296,213.25802939575394,-5.862595419847328,-1.8473282442748091,-0.3511450381679389,-0.32233883058470764,0.27436281859070466,-0.4287856071964018,1477.6556776556777,96.97683936472413,34.4559041392291,
1771001487115.9475,-0.11956521739130435,-5.695652173913043,-0.19565217391304346,-2.573309395571514,-9.12986235786954,-2.760023937761819,4008.7912087912086,1764.8351648351647,1.0,4.689155211803296,213.25802939575394,-6.183206106870228,0.4427480916030534,-0.030534351145038167,-0.3373313343328336,0.27136431784107945,-0.43628185907046474,1542.1245421245421,96.97683936472413,34.4559041392291,
1771001487135.4795,-0.14130434782608695,-5.706521739130435,-0.18478260869565216,-2.5924596050269297,-9.122681029323758,-2.731298623578695,4032.234432234432,1790.4761904761904,1.0,4.689155211803296,213.25802939575394,-6.091603053435114,2.5801526717557253,-0.22900763358778625,-0.3268365817091454,0.27586206896551724,-0.43478260869565216,1586.8131868131868,96.98256213665204,34.4559041392291,
1771001487155.0117,-0.10869565217391304,-5.684782608695652,-0.19565217391304346,-2.554159186116098,-9.122681029323758,-2.748055056852184,4032.234432234432,1797.069597069597,1.0,4.689155211803296,213.25802939575394,-5.83206106870229,3.16030534351145,0.4580152671755725,-0.3268365817091454,0.2773613193403298,-0.4257871064467766,1593.4065934065934,96.9797007492755,34.4559041392291,
1771001487174.5437,-0.13043478260869565,-5.663043478260869,-0.18478260869565216,-2.580490724117295,-9.079593058049072,-2.7169359664871333,4029.304029304029,1797.069597069597,1.0,4.689155211803296,213.25802939575394,-5.557251908396946,1.4809160305343512,0.732824427480916,-0.328335832083958,0.27436281859070466,-0.4302848575712144,1560.4395604395604,96.98256213665204,34.4559041392291,
1771001487194.0754,-0.10869565217391304,-5.6521739130434785,-0.19565217391304346,-2.551765409934171,-9.07241172950329,-2.724117295032914,4032.234432234432,1799.2673992673992,1.0,4.689155211803296,213.25802939575394,-4.961832061068702,1.297709923664122,0.7633587786259541,-0.3298350824587706,0.2983508245877061,-0.43478260869565216,1496.7032967032967,96.97111660409682,34.4559041392291,
1771001487213.6074,-0.11956521739130435,-5.684782608695652,-0.25,-2.551765409934171,-9.091561938958707,-2.7672052663076,4032.234432234432,1799.9999999999998,1.0,4.689155211803296,213.25802939575394,-4.763358778625954,2.0610687022900764,0.8549618320610687,-0.328335832083958,0.27586206896551724,-0.4422788605697151,1416.8498168498168,96.9797007492755,34.4559041392291,
1771001487233.1394,-0.10869565217391304,-5.706521739130435,-0.21739130434782608,-2.554159186116098,-9.110712148414123,-2.795930580490724,4032.234432234432,1800.7326007326005,1.0,4.684049980217227,213.49046321525884,-4.412213740458015,1.9541984732824427,0.7022900763358778,-0.3268365817091454,0.26836581709145424,-0.43778110944527737,1344.3223443223442,96.97111660409682,34.4559041392291,
1771001487252.6714,-0.09782608695652173,-5.717391304347826,-0.19565217391304346,-2.5374027528426093,-9.139437462597247,-2.755236385397965,4032.234432234432,1800.7326007326005,1.0,4.689155211803296,213.25802939575394,-3.9847328244274807,2.8854961832061066,0.6412213740458015,-0.32233883058470764,0.272863568215892,-0.4257871064467766,1290.10989010989,96.97683936472413,34.4559041392291,
1771001487272.2034,-0.10869565217391304,-5.717391304347826,-0.22826086956521738,-2.54458408138839,-9.13704368641532,-2.781567923399162,4008.7912087912086,1764.102564102564,1.0,4.684049980217227,213.49046321525884,-4.045801526717557,2.778625954198473,0.38167938931297707,-0.32083958020989506,0.2698650674662669,-0.4302848575712144,1264.4688644688645,96.97683936472413,34.4559041392291,
1771001487291.735,-0.10869565217391304,-5.695652173913043,-0.2717391304347826,-2.546977857570317,-9.127468581687612,-2.805505685218432,4033.6996336996335,1796.3369963369962,1.0,4.689155211803296,213.25802939575394,-3.709923664122137,1.9236641221374045,0.5954198473282443,-0.3313343328335832,0.2848575712143928,-0.4257871064467766,1283.5164835164835,96.9797007492755,34.4559041392291,
1771001487311.267,-0.06521739130434782,-5.684782608695652,-0.2934782608695652,-2.4991023339317775,-9.117893476959903,-2.8509874326750446,4032.234432234432,1799.2673992673992,1.0,4.684049980217227,213.49046321525884,-3.145038167938931,2.7938931297709924,0.24427480916030533,-0.3298350824587706,0.2788605697151424,-0.424287856071964,1317.216117216117,96.97683936472413,34.4559041392291,
1771001487330.799,-0.08695652173913043,-5.684782608695652,-0.2934782608695652,-2.511071214841412,-9.125074805505685,-2.8557749850388987,4029.304029304029,1797.8021978021977,1.0,4.684049980217227,213.49046321525884,-3.0229007633587783,2.5801526717557253,0.6564885496183206,-0.32533733133433285,0.2863568215892054,-0.4257871064467766,1346.5201465201465,96.97683936472413,34.4559041392291,
1771001487350.331,-0.043478260869565216,-5.706521739130435,-0.2826086956521739,-2.503889886295631,-9.12028725314183,-2.8557749850388987,4032.234432234432,1799.2673992673992,1.0,4.684049980217227,213.49046321525884,-3.068702290076336,3.2213740458015265,0.21374045801526717,-0.3298350824587706,0.280359820089955,-0.43478260869565216,1372.8937728937728,96.9797007492755,34.4559041392291,
1771001487369.863,-0.07608695652173914,-5.684782608695652,-0.31521739130434784,-2.5182525433871934,-9.115499700777978,-2.848593656493118,4033.6996336996335,1805.128205128205,1.0,4.684049980217227,213.49046321525884,-3.5267175572519083,3.2519083969465647,0.22900763358778625,-0.3193403298350824,0.27586206896551724,-0.4257871064467766,1400.0,96.9797007492755,34.4559041392291,
1771001487389.395,-0.06521739130434782,-5.695652173913043,-0.30434782608695654,-2.4847396768402152,-9.103530819868341,-2.860562537402753,4032.234432234432,1801.4652014652013,1.0,4.684049980217227,213.49046321525884,-3.9389312977099236,2.381679389312977,0.04580152671755725,-0.3268365817091454,0.280359820089955,-0.4212893553223388,1416.8498168498168,96.98256213665204,34.4559041392291,
1771001487408.927,-0.043478260869565216,-5.673913043478261,-0.33695652173913043,-2.4703770197486534,-9.08916816277678,-2.884500299222023,4032.234432234432,1800.7326007326005,1.0,4.684049980217227,213.49046321525884,-4.061068702290076,2.183206106870229,-0.07633587786259542,-0.32533733133433285,0.27586206896551724,-0.424287856071964,1419.7802197802198,96.9797007492755,34.4559041392291,
1771001487428.459,-0.021739130434782608,-5.673913043478261,-0.33695652173913043,-2.4512268102932375,-9.08916816277678,-2.9180131657690005,4008.7912087912086,1764.102564102564,1.0,4.684049980217227,213.49046321525884,-3.7251908396946565,1.8473282442748091,0.1984732824427481,-0.3238380809595202,0.27436281859070466,-0.4257871064467766,1407.3260073260071,96.9757421310179,34.43077819636674,
1771001487447.991,-0.05434782608695652,-5.663043478260869,-0.32608695652173914,-2.4751645721125075,-9.077199281867145,-2.9108318372232196,4033.6996336996335,1796.3369963369962,1.0,4.684049980217227,213.49046321525884,-3.83206106870229,1.4961832061068703,-0.564885496183206,-0.3193403298350824,0.272863568215892,-0.424287856071964,1391.9413919413919,96.97860340261708,34.43077819636674,
1771001487467.523,-0.05434782608695652,-5.663043478260869,-0.31521739130434784,-2.4775583482944343,-9.07241172950329,-2.8916816277678037,4030.7692307692305,1803.6630036630036,1.0,4.684049980217227,213.49046321525884,-4.076335877862595,1.9083969465648853,-1.2366412213740459,-0.3238380809595202,0.2833583208395802,-0.43628185907046474,1368.4981684981683,96.97860340261708,34.43077819636674,
1771001487487.055,-0.05434782608695652,-5.673913043478261,-0.30434782608695654,-2.491921005385996,-9.103530819868341,-2.877318970676242,4027.8388278388275,1804.3956043956043,1.0,4.684049980217227,213.49046321525884,-4.351145038167939,1.5572519083969465,-1.8015267175572518,-0.32083958020989506,0.27586206896551724,-0.4257871064467766,1338.4615384615383,96.97860340261708,34.43077819636674,
1771001487506.587,-0.08695652173913043,-5.728260869565217,-0.32608695652173914,-2.5014961101137043,-9.134649910233392,-2.858168761220826,4032.234432234432,1801.4652014652013,1.0,4.684049980217227,213.49046321525884,-4.67175572519084,0.9770992366412213,-1.9389312977099236,-0.32083958020989506,0.280359820089955,-0.41829085457271364,1326.7399267399267,96.9757421310179,34.43077819636674,
1771001487526.119,-0.08695652173913043,-5.717391304347826,-0.31521739130434784,-2.5134649910233393,-9.13704368641532,-2.8797127468581687,4032.234432234432,1799.9999999999998,1.0,4.684049980217227,213.49046321525884,-4.641221374045801,0.564885496183206,-2.5801526717557253,-0.328335832083958,0.29685157421289354,-0.43628185907046474,1318.6813186813185,96.97288086224361,34.43077819636674,
1771001487545.651,-0.09782608695652173,-5.684782608695652,-0.30434782608695654,-2.5302214242968284,-9.115499700777978,-2.8964691801316578,4005.8608058608056,1761.9047619047617,1.0,4.684049980217227,213.49046321525884,-4.519083969465648,-0.15267175572519084,-2.8091603053435112,-0.3298350824587706,0.272863568215892,-0.4257871064467766,1310.6227106227104,96.9757421310179,34.43077819636674,
1771001487565.1829,-0.07608695652173914,-5.673913043478261,-0.30434782608695654,-2.5182525433871934,-9.062836624775583,-2.8629563135846796,4032.234432234432,1789.7435897435896,1.0,4.684049980217227,213.49046321525884,-4.366412213740458,-0.13740458015267176,-2.6412213740458013,-0.3238380809595202,0.26836581709145424,-0.42728635682158916,1314.2857142857142,96.9757421310179,34.43077819636674,
1771001487584.7148,-0.08695652173913043,-5.684782608695652,-0.2826086956521739,-2.542190305206463,-9.067624177139438,-2.848593656493118,4007.326007326007,1765.5677655677655,1.0,4.684049980217227,213.49046321525884,-4.458015267175572,-0.2595419847328244,-2.549618320610687,-0.32083958020989506,0.27436281859070466,-0.43178410794602695,1324.5421245421244,96.97001959629429,34.43077819636674,
1771001487604.2468,-0.10869565217391304,-5.717391304347826,-0.2717391304347826,-2.5493716337522443,-9.127468581687612,-2.822262118491921,4032.234432234432,1790.4761904761904,1.0,4.678944748631159,213.72340425531914,-4.625954198473282,-0.24427480916030533,-2.687022900763359,-0.3238380809595202,0.2773613193403298,-0.4212893553223388,1330.4029304029302,96.9757421310179,34.43077819636674,
1771001487623.7788,-0.11956521739130435,-5.684782608695652,-0.2826086956521739,-2.546977857570317,-9.096349491322561,-2.824655894673848,4032.234432234432,1797.069597069597,1.0,4.684049980217227,213.49046321525884,-4.7328244274809155,0.4580152671755725,-2.900763358778626,-0.3268365817091454,0.280359820089955,-0.43628185907046474,1342.8571428571427,96.9757421310179,34.43077819636674,
1771001487643.3108,-0.10869565217391304,-5.6521739130434785,-0.2608695652173913,-2.546977857570317,-9.058049072411729,-2.83901855176541,4027.8388278388275,1796.3369963369962,1.0,4.684049980217227,213.49046321525884,-4.33587786259542,0.5038167938931297,-2.748091603053435,-0.32233883058470764,0.2788605697151424,-0.4197901049475262,1347.985347985348,96.97860340261708,34.43077819636674,
1771001487662.8428,-0.09782608695652173,-5.6521739130434785,-0.2608695652173913,-2.5374027528426093,-9.077199281867145,-2.822262118491921,4032.234432234432,1799.2673992673992,1.0,4.684049980217227,213.49046321525884,-3.847328244274809,0.16793893129770993,-2.2900763358778624,-0.3268365817091454,0.2893553223388306,-0.4197901049475262,1339.9267399267399,96.97860340261708,34.43077819636674,
1771001487682.3748,-0.13043478260869565,-5.673913043478261,-0.2391304347826087,-2.54458408138839,-9.067624177139438,-2.7887492519449433,4032.234432234432,1799.9999999999998,1.0,4.684049980217227,213.49046321525884,-3.801526717557252,-1.2366412213740459,-1.7404580152671756,-0.3238380809595202,0.280359820089955,-0.42728635682158916,1323.8095238095236,96.97288086224361,34.43077819636674,
1771001487701.9065,-0.11956521739130435,-5.673913043478261,-0.21739130434782608,-2.56852184320766,-9.086774386594854,-2.7695990424895274,4030.7692307692305,1804.3956043956043,1.0,4.678944748631159,213.72340425531914,-4.106870229007633,-2.33587786259542,-1.9694656488549618,-0.32533733133433285,0.2818590704647676,-0.43478260869565216,1322.3443223443223,96.97860340261708,34.43077819636674,
1771001487721.4385,-0.09782608695652173,-5.663043478260869,-0.21739130434782608,-2.532615200478755,-9.103530819868341,-2.771992818671454,4032.234432234432,1801.4652014652013,1.0,4.678944748631159,213.72340425531914,-4.549618320610687,-2.9618320610687023,-2.091603053435114,-0.32233883058470764,0.272863568215892,-0.43178410794602695,1339.9267399267399,96.9757421310179,34.43077819636674,
1771001487740.9705,-0.10869565217391304,-5.684782608695652,-0.2391304347826087,-2.4991023339317775,-9.108318372232196,-2.774386594853381,4007.326007326007,1768.4981684981683,1.0,4.678944748631159,213.72340425531914,-4.5038167938931295,-2.5038167938931295,-2.4122137404580153,-0.33433283358320837,0.2653673163418291,-0.4257871064467766,1378.7545787545787,96.9671583331699,34.43077819636674,
1771001487760.5024,-0.14130434782608695,-5.684782608695652,-0.30434782608695654,-2.5493716337522443,-9.093955715140634,-2.807899461400359,4032.234432234432,1791.9413919413919,1.0,4.678944748631159,213.72340425531914,-4.366412213740458,-0.6870229007633587,-2.732824427480916,-0.3238380809595202,0.27136431784107945,-0.4287856071964018,1438.8278388278388,96.9671583331699,34.43077819636674,
1771001487780.0344,-0.14130434782608695,-5.663043478260869,-0.2608695652173913,-2.556552962298025,-9.101137043686416,-2.824655894673848,4032.234432234432,1797.8021978021977,1.0,4.678944748631159,213.72340425531914,-3.3893129770992365,0.061068702290076333,-3.0839694656488548,-0.3268365817091454,0.2818590704647676,-0.4287856071964018,1512.087912087912,96.97001959629429,34.43077819636674,
1771001487799.5664,-0.16304347826086957,-5.663043478260869,-0.2717391304347826,-2.590065828845003,-9.115499700777978,-2.817474566128067,4026.373626373626,1790.4761904761904,1.0,4.678944748631159,213.72340425531914,-3.3435114503816794,-0.15267175572519084,-3.114503816793893,-0.3268365817091454,0.2818590704647676,-0.4212893553223388,1571.4285714285713,96.97288086224361,34.43077819636674,
1771001487819.0984,-0.17391304347826086,-5.684782608695652,-0.25,-2.602034709754638,-9.108318372232196,-2.7887492519449433,4033.6996336996335,1803.6630036630036,1.0,4.678944748631159,213.72340425531914,-3.2671755725190836,-1.5419847328244274,-3.0229007633587783,-0.328335832083958,0.2833583208395802,-0.4287856071964018,1599.2673992673992,96.97288086224361,34.43077819636674,
1771001487838.6304,-0.11956521739130435,-5.684782608695652,-0.2717391304347826,-2.585278276481149,-9.108318372232196,-2.810293237582286,4029.304029304029,1799.2673992673992,1.0,4.678944748631159,213.72340425531914,-3.5725190839694654,-2.1374045801526718,-2.4580152671755724,-0.3298350824587706,0.27586206896551724,-0.4332833583208396,1584.6153846153845,96.97288086224361,34.43077819636674,
1771001487858.1624,-0.13043478260869565,-5.684782608695652,-0.2934782608695652,-2.580490724117295,-9.098743267504489,-2.827049670855775,4032.234432234432,1799.2673992673992,1.0,4.678944748631159,213.72340425531914,-3.4351145038167936,-1.4351145038167938,-2.213740458015267,-0.32533733133433285,0.27436281859070466,-0.4332833583208396,1536.9963369963368,96.97288086224361,34.43077819636674,
1771001487877.6943,-0.16304347826086957,-5.684782608695652,-0.32608695652173914,-2.585278276481149,-9.093955715140634,-2.877318970676242,4030.7692307692305,1804.3956043956043,1.0,4.678944748631159,213.72340425531914,-3.236641221374046,-0.3053435114503817,-2.198473282442748,-0.3238380809595202,0.2698650674662669,-0.4197901049475262,1483.5164835164835,96.97288086224361,34.43077819636674,
1771001487897.2263,-0.18478260869565216,-5.663043478260869,-0.32608695652173914,-2.633153800119689,-9.084380610412927,-2.8749251944943146,4007.326007326007,1769.230769230769,1.0,4.673839517045092,213.95685417804478,-2.8702290076335877,0.41221374045801523,-2.564885496183206,-0.3313343328335832,0.2698650674662669,-0.4287856071964018,1421.9780219780218,96.97288086224361,34.43077819636674,
1771001487916.7583,-0.16304347826086957,-5.684782608695652,-0.33695652173913043,-2.602034709754638,-9.077199281867145,-2.8749251944943146,4033.6996336996335,1797.8021978021977,1.0,4.678944748631159,213.72340425531914,-2.900763358778626,-0.9923664122137404,-2.4732824427480917,-0.32233883058470764,0.272863568215892,-0.42278860569715143,1368.4981684981683,96.97288086224361,34.43077819636674,
1771001487936.2903,-0.13043478260869565,-5.684782608695652,-0.31521739130434784,-2.570915619389587,-9.096349491322561,-2.8677438659485337,4032.234432234432,1799.2673992673992,1.0,4.678944748631159,213.72340425531914,-3.1755725190839694,-1.3740458015267174,-1.984732824427481,-0.3328335832083958,0.2893553223388306,-0.43478260869565216,1334.065934065934,96.9671583331699,34.43077819636674,
1771001487955.8225,-0.13043478260869565,-5.684782608695652,-0.32608695652173914,-2.563734290843806,-9.105924596050269,-2.9084380610412928,4026.373626373626,1790.4761904761904,1.0,4.678944748631159,213.72340425531914,-3.7709923664122136,-1.0076335877862594,-2.030534351145038,-0.33433283358320837,0.2833583208395802,-0.4212893553223388,1307.6923076923076,96.97860340261708,34.43077819636674,
1771001487975.3542,-0.14130434782608695,-5.673913043478261,-0.34782608695652173,-2.587672052663076,-9.08916816277678,-2.9012567324955114,4004.395604395604,1758.2417582417581,1.0,4.673839517045092,213.95685417804478,-3.8625954198473282,-0.6870229007633587,-2.091603053435114,-0.3268365817091454,0.2818590704647676,-0.4302848575712144,1312.8205128205127,96.9757421310179,34.43077819636674,
1771001487994.8862,-0.14130434782608695,-5.673913043478261,-0.34782608695652173,-2.573309395571514,-9.07241172950329,-2.9084380610412928,4032.234432234432,1789.0109890109889,1.0,4.673839517045092,213.95685417804478,-3.9083969465648853,-1.114503816793893,-1.9236641221374045,-0.3313343328335832,0.2773613193403298,-0.424287856071964,1345.7875457875457,96.97860340261708,34.43077819636674,
1771001488014.4182,-0.13043478260869565,-5.695652173913043,-0.2934782608695652,-2.563734290843806,-9.084380610412927,-2.8988629563135846,4032.234432234432,1797.069597069597,1.0,4.673839517045092,213.95685417804478,-3.9541984732824424,-1.2519083969465647,-2.1068702290076335,-0.3298350824587706,0.2848575712143928,-0.4287856071964018,1383.150183150183,96.9757421310179,34.43077819636674,
1771001488033.9502,-0.11956521739130435,-5.706521739130435,-0.2934782608695652,-2.551765409934171,-9.115499700777978,-2.877318970676242,4029.304029304029,1797.069597069597,1.0,4.678944748631159,213.72340425531914,-4.152671755725191,-1.3435114503816794,-2.33587786259542,-0.31784107946026985,0.272863568215892,-0.43178410794602695,1405.8608058608058,96.97001959629429,34.43077819636674,
1771001488053.4822,-0.09782608695652173,-5.695652173913043,-0.2934782608695652,-2.527827648114901,-9.12028725314183,-2.848593656493118,4007.326007326007,1767.7655677655675,1.0,4.673839517045092,213.95685417804478,-4.427480916030534,-0.9923664122137404,-1.6335877862595418,-0.3268365817091454,0.30134932533733133,-0.4452773613193403,1410.989010989011,96.97288086224361,34.43077819636674,
1771001488073.0142,-0.11956521739130435,-5.728260869565217,-0.2826086956521739,-2.5302214242968284,-9.132256134051467,-2.824655894673848,4032.234432234432,1791.2087912087911,1.0,4.673839517045092,213.95685417804478,-4.244274809160305,-0.5038167938931297,-1.984732824427481,-0.32533733133433285,0.2653673163418291,-0.43628185907046474,1413.1868131868132,96.9757421310179,34.43077819636674,
