Shimmer_A679_TimestampSync_Unix_CAL,Shimmer_A679_Accel_LN_X_CAL,Shimmer_A679_Accel_LN_Y_CAL,Shimmer_A679_Accel_LN_Z_CAL,Shimmer_A679_Accel_WR_X_CAL,Shimmer_A679_Accel_WR_Y_CAL,Shimmer_A679_Accel_WR_Z_CAL,Shimmer_A679_Battery_CAL,Shimmer_A679_Ext_Exp_A15_CAL,Shimmer_A679_GSR_Range_CAL,Shimmer_A679_GSR_Skin_Conductance_CAL,Shimmer_A679_GSR_Skin_Resistance_CAL,Shimmer_A679_Gyro_X_CAL,Shimmer_A679_Gyro_Y_CAL,Shimmer_A679_Gyro_Z_CAL,Shimmer_A679_Mag_X_CAL,Shimmer_A679_Mag_Y_CAL,Shimmer_A679_Mag_Z_CAL,Shimmer_A679_PPG_A13_CAL,Shimmer_A679_Pressure_BMP280_CAL,Shimmer_A679_Temperature_BMP280_CAL,Unnamed: 21
1771002057000.2646,0.4891304347826087,-5.760869565217392,-0.3913043478260869,-1.8886894075403948,-9.20885697187313,-2.9371633752244164,4024.9084249084244,1780.2197802197802,1.0,4.418577937741701,226.31715771230503,-3.0381679389312977,0.030534351145038167,-1.7709923664122136,-0.29385307346326833,0.2518740629685157,-0.33883058470764615,1421.9780219780218,96.98506178508457,34.5262568179518,
1771002057019.7966,0.5,-5.728260869565217,-0.3695652173913043,-1.9126271693596648,-9.220825852782765,-2.9491322561340514,4026.373626373626,1784.6153846153845,1.0,4.413472706155633,226.57894736842107,-3.1755725190839694,-0.33587786259541985,-1.5267175572519083,-0.29385307346326833,0.2593703148425787,-0.3313343328335832,1413.9194139194137,96.9822000820031,34.5262568179518,
1771002057039.3286,0.5,-5.75,-0.3913043478260869,-1.871932974266906,-9.228007181328545,-2.9658886894075405,4010.25641025641,1765.5677655677655,1.0,4.413472706155633,226.57894736842107,-3.633587786259542,0.4580152671755725,-1.129770992366412,-0.29235382308845576,0.26836581709145424,-0.3448275862068965,1403.6630036630036,96.9822000820031,34.5262568179518,
1771002057058.8606,0.4891304347826087,-5.804347826086956,-0.3913043478260869,-1.881508078994614,-9.247157390783961,-2.9682824655894673,4024.9084249084244,1786.080586080586,1.0,4.413472706155633,226.57894736842107,-3.877862595419847,0.8702290076335878,-1.2213740458015268,-0.29535232383808097,0.2773613193403298,-0.3448275862068965,1395.6043956043954,96.9879234909918,34.5262568179518,
1771002057078.3926,0.4891304347826087,-5.815217391304348,-0.3913043478260869,-1.850388988629563,-9.20885697187313,-2.9611011370436864,4024.9084249084244,1791.2087912087911,1.0,4.418577937741701,226.31715771230503,-4.061068702290076,1.8625954198473282,-1.129770992366412,-0.29535232383808097,0.2848575712143928,-0.34182908545727136,1387.5457875457876,96.9822000820031,34.5262568179518,
1771002057097.9246,0.5,-5.826086956521739,-0.3913043478260869,-1.907839616995811,-9.278276481149012,-2.9587073608617596,4021.978021978022,1785.3479853479853,1.0,4.418577937741701,226.31715771230503,-3.8931297709923665,1.83206106870229,-1.0229007633587786,-0.29535232383808097,0.29385307346326833,-0.3403298350824588,1388.278388278388,96.9879234909918,34.5262568179518,
1771002057117.4563,0.5,-5.793478260869565,-0.41304347826086957,-1.886295631358468,-9.247157390783961,-2.9587073608617596,4014.6520146520143,1768.4981684981683,1.0,4.418577937741701,226.31715771230503,-3.7709923664122136,1.1908396946564885,-1.9236641221374045,-0.29535232383808097,0.28785607196401797,-0.33883058470764615,1402.197802197802,96.99078519972481,34.5262568179518,
1771002057136.9883,0.46739130434782605,-5.782608695652174,-0.3913043478260869,-1.8982645122681028,-9.206463195691203,-2.9347695990424896,3998.5347985347985,1742.8571428571427,1.0,4.418577937741701,226.31715771230503,-4.045801526717557,0.7022900763358778,-2.015267175572519,-0.2908545727136432,0.2893553223388306,-0.3403298350824588,1419.7802197802198,96.97933838174741,34.5262568179518,
1771002057156.5205,0.46739130434782605,-5.760869565217392,-0.3913043478260869,-1.9150209455415919,-9.18491921005386,-2.9371633752244164,3995.6043956043954,1733.3333333333333,1.0,4.418577937741701,226.31715771230503,-4.2748091603053435,-0.8396946564885496,-2.3053435114503817,-0.2863568215892054,0.2908545727136432,-0.34782608695652173,1424.9084249084249,96.99364691128359,34.5262568179518,
1771002057176.0525,0.4782608695652174,-5.771739130434782,-0.3804347826086956,-1.8886894075403948,-9.196888090963494,-2.9467384799521246,4023.4432234432234,1770.6959706959706,1.0,4.418577937741701,226.31715771230503,-4.595419847328244,-1.6335877862595418,-2.854961832061069,-0.2983508245877061,0.27586206896551724,-0.33883058470764615,1425.6410256410256,96.9822000820031,34.5262568179518,
1771002057195.5845,0.46739130434782605,-5.782608695652174,-0.3695652173913043,-1.9006582884500298,-9.2327947336924,-2.951526032315978,4008.7912087912086,1755.311355311355,1.0,4.418577937741701,226.31715771230503,-4.442748091603053,-1.3282442748091603,-2.3206106870229006,-0.29535232383808097,0.2638680659670165,-0.34182908545727136,1424.1758241758241,96.9879234909918,34.5262568179518,
1771002057215.1162,0.5,-5.826086956521739,-0.3913043478260869,-1.8886894075403948,-9.259126271693596,-2.951526032315978,4024.9084249084244,1782.4175824175823,1.0,4.413472706155633,226.57894736842107,-4.412213740458015,-0.04580152671755725,-1.9694656488549618,-0.2983508245877061,0.27436281859070466,-0.3583208395802099,1419.7802197802198,96.98871523229278,34.53128201147192,
1771002057234.6482,0.43478260869565216,-5.869565217391304,-0.34782608695652173,-1.9317773788150807,-9.307001795332136,-2.9108318372232196,4023.4432234432234,1783.150183150183,1.0,4.413472706155633,226.57894736842107,-4.030534351145038,0.7022900763358778,-1.6946564885496183,-0.29385307346326833,0.27436281859070466,-0.34782608695652173,1408.7912087912086,96.9829917769919,34.53128201147192,
1771002057254.1802,0.5,-5.826086956521739,-0.3695652173913043,-1.8982645122681028,-9.268701376421305,-2.9491322561340514,4023.4432234432234,1783.8827838827838,1.0,4.413472706155633,226.57894736842107,-4.305343511450381,1.282442748091603,-1.450381679389313,-0.2863568215892054,0.272863568215892,-0.34632683658170915,1404.3956043956043,96.9829917769919,34.53128201147192,
1771002057273.7122,0.5217391304347826,-5.75,-0.3804347826086956,-1.8910831837223219,-9.21603830041891,-2.9443447037701973,4024.9084249084244,1790.4761904761904,1.0,4.413472706155633,226.57894736842107,-3.7404580152671754,1.9541984732824427,-1.2213740458015268,-0.2893553223388306,0.2773613193403298,-0.3268365817091454,1405.8608058608058,96.98871523229278,34.53128201147192,
1771002057293.244,0.5108695652173912,-5.760869565217392,-0.3913043478260869,-1.8384201077199283,-9.20885697187313,-2.9275882704967087,4021.978021978022,1784.6153846153845,1.0,4.413472706155633,226.57894736842107,-4.381679389312977,2.0,-0.7480916030534351,-0.29535232383808097,0.2653673163418291,-0.3373313343328336,1410.2564102564102,96.9829917769919,34.53128201147192,
1771002057312.776,0.532608695652174,-5.75,-0.3695652173913043,-1.85278276481149,-9.187312986235787,-2.9563135846798323,3997.069597069597,1740.6593406593406,1.0,4.418577937741701,226.31715771230503,-4.015267175572519,0.24427480916030533,-1.0381679389312977,-0.29685157421289354,0.2908545727136432,-0.34332833583208394,1397.069597069597,96.98871523229278,34.53128201147192,
1771002057332.308,0.5434782608695652,-5.804347826086956,-0.3804347826086956,-1.8479952124476362,-9.213644524236983,-2.9299820466786355,4023.4432234432234,1772.8937728937728,1.0,4.418577937741701,226.31715771230503,-4.198473282442748,-2.0,-1.9694656488549618,-0.29235382308845576,0.28785607196401797,-0.3538230884557721,1374.3589743589744,96.9829917769919,34.53128201147192,
1771002057351.84,0.5217391304347826,-5.815217391304348,-0.3913043478260869,-1.8456014362657092,-9.228007181328545,-2.9658886894075405,4008.7912087912086,1755.311355311355,1.0,4.413472706155633,226.57894736842107,-3.9541984732824424,-3.3740458015267176,-2.687022900763359,-0.29385307346326833,0.2608695652173913,-0.3448275862068965,1353.8461538461538,96.9829917769919,34.53128201147192,
1771002057371.372,0.5217391304347826,-5.826086956521739,-0.41304347826086957,-1.8551765409934171,-9.275882704967085,-2.9730700179533214,3997.069597069597,1732.6007326007325,1.0,4.413472706155633,226.57894736842107,-3.6030534351145036,-3.2061068702290076,-3.2519083969465647,-0.2908545727136432,0.2698650674662669,-0.3493253373313343,1361.1721611721612,96.98871523229278,34.53128201147192,
1771002057390.904,0.46739130434782605,-5.826086956521739,-0.42391304347826086,-1.893476959904249,-9.273488928785158,-2.9970077797725914,4024.9084249084244,1777.2893772893772,1.0,4.413472706155633,226.57894736842107,-3.6946564885496183,-1.3740458015267174,-3.2671755725190836,-0.2908545727136432,0.2818590704647676,-0.35082458770614694,1397.069597069597,96.98871523229278,34.53128201147192,
1771002057410.436,0.4891304347826087,-5.771739130434782,-0.42391304347826086,-1.907839616995811,-9.242369838420107,-2.999401555954518,4023.4432234432234,1783.150183150183,1.0,4.413472706155633,226.57894736842107,-4.137404580152672,-0.32061068702290074,-2.763358778625954,-0.29685157421289354,0.27586206896551724,-0.34332833583208394,1446.153846153846,96.98871523229278,34.53128201147192,
1771002057429.968,0.45652173913043476,-5.793478260869565,-0.3913043478260869,-1.9222022740873728,-9.235188509874327,-2.9850388988629564,4014.6520146520143,1767.7655677655675,1.0,4.413472706155633,226.57894736842107,-4.5038167938931295,0.549618320610687,-2.4427480916030535,-0.29385307346326833,0.272863568215892,-0.33883058470764615,1493.040293040293,96.98013005358018,34.53128201147192,
1771002057449.5,0.4891304347826087,-5.826086956521739,-0.42391304347826086,-1.893476959904249,-9.239976062238181,-2.9778575703171755,3999.9999999999995,1744.3223443223442,1.0,4.413472706155633,226.57894736842107,-4.595419847328244,1.4045801526717556,-1.984732824427481,-0.29385307346326833,0.30134932533733133,-0.34632683658170915,1523.0769230769229,96.9829917769919,34.53128201147192,
1771002057469.032,0.5108695652173912,-5.793478260869565,-0.3695652173913043,-1.8791143028126869,-9.249551166965889,-2.9611011370436864,3997.069597069597,1728.937728937729,1.0,4.418577937741701,226.31715771230503,-4.473282442748092,2.015267175572519,-1.7862595419847327,-0.2908545727136432,0.29385307346326833,-0.3448275862068965,1542.1245421245421,96.98871523229278,34.53128201147192,
1771002057488.564,0.5108695652173912,-5.793478260869565,-0.358695652173913,-1.871932974266906,-9.223219628964692,-2.939557151406343,4024.9084249084244,1775.8241758241757,1.0,4.413472706155633,226.57894736842107,-4.366412213740458,1.8015267175572518,-1.9389312977099236,-0.29535232383808097,0.29385307346326833,-0.34632683658170915,1536.9963369963368,96.98585350322942,34.53128201147192,
1771002057508.096,0.5108695652173912,-5.771739130434782,-0.40217391304347827,-1.862357869539198,-9.251944943147816,-2.9802513464991023,4007.326007326007,1761.172161172161,1.0,4.413472706155633,226.57894736842107,-4.702290076335878,1.4198473282442747,-1.8015267175572518,-0.29235382308845576,0.2788605697151424,-0.3523238380809595,1509.1575091575091,96.9829917769919,34.53128201147192,
1771002057527.628,0.5,-5.782608695652174,-0.40217391304347827,-1.867145421903052,-9.21603830041891,-2.9611011370436864,3997.069597069597,1740.6593406593406,1.0,4.418577937741701,226.31715771230503,-4.366412213740458,1.114503816793893,-1.8931297709923662,-0.2983508245877061,0.280359820089955,-0.3373313343328336,1478.3882783882782,96.98585350322942,34.53128201147192,
1771002057547.16,0.5,-5.771739130434782,-0.32608695652173914,-1.8791143028126869,-9.213644524236983,-2.9084380610412928,4024.9084249084244,1778.7545787545787,1.0,4.413472706155633,226.57894736842107,-4.442748091603053,0.32061068702290074,-2.2900763358778624,-0.28785607196401797,0.27586206896551724,-0.34182908545727136,1429.3040293040292,96.98585350322942,34.53128201147192,
1771002057566.692,0.4782608695652174,-5.793478260869565,-0.3695652173913043,-1.874326750448833,-9.230400957510472,-2.9132256134051464,4023.4432234432234,1783.150183150183,1.0,4.413472706155633,226.57894736842107,-4.564885496183206,-0.48854961832061067,-2.732824427480916,-0.30134932533733133,0.27136431784107945,-0.33433283358320837,1386.080586080586,96.9829917769919,34.53128201147192,
1771002057586.224,0.4782608695652174,-5.826086956521739,-0.3913043478260869,-1.886295631358468,-9.259126271693596,-2.9539198084979055,4023.4432234432234,1783.8827838827838,1.0,4.413472706155633,226.57894736842107,-4.076335877862595,-0.9618320610687022,-2.854961832061069,-0.2893553223388306,0.2848575712143928,-0.34782608695652173,1347.985347985348,96.9829917769919,34.53128201147192,
1771002057605.756,0.46739130434782605,-5.804347826086956,-0.42391304347826086,-1.917414721723519,-9.25673249551167,-2.9922202274087373,3999.9999999999995,1747.985347985348,1.0,4.413472706155633,226.57894736842107,-4.0,-0.47328244274809156,-2.564885496183206,-0.2908545727136432,0.2848575712143928,-0.3523238380809595,1337.7289377289376,96.98585350322942,34.53128201147192,
1771002057625.2878,0.44565217391304346,-5.793478260869565,-0.41304347826086957,-1.895870736086176,-9.230400957510472,-2.98982645122681,4024.9084249084244,1780.9523809523807,1.0,4.413472706155633,226.57894736842107,-4.305343511450381,0.48854961832061067,-2.5343511450381677,-0.2908545727136432,0.26686656671664166,-0.3313343328335832,1355.3113553113553,96.98585350322942,34.53128201147192,
1771002057644.8196,0.4782608695652174,-5.760869565217392,-0.41304347826086957,-1.905445840813884,-9.189706762417714,-2.982645122681029,4026.373626373626,1785.3479853479853,1.0,4.418577937741701,226.31715771230503,-4.564885496183206,1.129770992366412,-2.045801526717557,-0.29535232383808097,0.2593703148425787,-0.3313343328335832,1382.4175824175823,96.98585350322942,34.53128201147192,
1771002057664.3516,0.4782608695652174,-5.771739130434782,-0.41304347826086957,-1.9006582884500298,-9.211250748055056,-2.9587073608617596,4005.8608058608056,1757.5091575091574,1.0,4.418577937741701,226.31715771230503,-4.778625954198473,1.4961832061068703,-1.465648854961832,-0.2983508245877061,0.29235382308845576,-0.34332833583208394,1394.139194139194,96.9829917769919,34.53128201147192,
1771002057683.8835,0.5,-5.793478260869565,-0.3695652173913043,-1.864751645721125,-9.228007181328545,-2.9539198084979055,3997.069597069597,1733.3333333333333,1.0,4.418577937741701,226.31715771230503,-4.6106870229007635,1.5572519083969465,-1.4198473282442747,-0.29535232383808097,0.280359820089955,-0.35082458770614694,1393.4065934065934,96.9829917769919,34.53128201147192,
1771002057703.4155,0.5,-5.793478260869565,-0.3695652173913043,-1.881508078994614,-9.239976062238181,-2.9563135846798323,4024.9084249084244,1776.5567765567764,1.0,4.413472706155633,226.57894736842107,-4.458015267175572,1.4351145038167938,-1.450381679389313,-0.29685157421289354,0.2608695652173913,-0.35532233883058467,1394.139194139194,96.98871523229278,34.53128201147192,
1771002057722.9475,0.5,-5.793478260869565,-0.358695652173913,-1.859964093357271,-9.242369838420107,-2.9611011370436864,4023.4432234432234,1782.4175824175823,1.0,4.418577937741701,226.31715771230503,-4.519083969465648,1.7404580152671756,-1.7862595419847327,-0.2848575712143928,0.2773613193403298,-0.3373313343328336,1392.6739926739926,96.98013005358018,34.53128201147192,
1771002057742.4795,0.5217391304347826,-5.782608695652174,-0.3913043478260869,-1.87672052663076,-9.22561340514662,-2.9491322561340514,4008.7912087912086,1758.2417582417581,1.0,4.418577937741701,226.31715771230503,-4.381679389312977,1.4045801526717556,-1.816793893129771,-0.29535232383808097,0.26836581709145424,-0.3373313343328336,1375.8241758241757,96.9829917769919,34.53128201147192,
1771002057762.0117,0.5217391304347826,-5.782608695652174,-0.3695652173913043,-1.8456014362657092,-9.213644524236983,-2.9491322561340514,3999.9999999999995,1740.6593406593406,1.0,4.418577937741701,226.31715771230503,-4.396946564885496,1.2061068702290076,-1.8473282442748091,-0.2983508245877061,0.2833583208395802,-0.34332833583208394,1364.8351648351647,96.9829917769919,34.53128201147192,
1771002057781.5437,0.5217391304347826,-5.804347826086956,-0.3695652173913043,-1.840813883901855,-9.244763614602034,-2.9467384799521246,3995.6043956043954,1732.6007326007325,1.0,4.418577937741701,226.31715771230503,-4.427480916030534,-0.061068702290076333,-2.198473282442748,-0.2983508245877061,0.2818590704647676,-0.34632683658170915,1350.18315018315,96.98585350322942,34.53128201147192,
1771002057801.0754,0.5108695652173912,-5.815217391304348,-0.40217391304347827,-1.862357869539198,-9.244763614602034,-2.9491322561340514,4024.9084249084244,1777.2893772893772,1.0,4.413472706155633,226.57894736842107,-4.259541984732825,-0.030534351145038167,-2.0610687022900764,-0.29385307346326833,0.27136431784107945,-0.3403298350824588,1334.065934065934,96.98871523229278,34.53128201147192,
1771002057820.6074,0.5,-5.826086956521739,-0.40217391304347827,-1.8791143028126869,-9.251944943147816,-2.9778575703171755,4005.8608058608056,1754.5787545787546,1.0,4.413472706155633,226.57894736842107,-4.6106870229007635,-0.13740458015267176,-2.595419847328244,-0.29685157421289354,0.2908545727136432,-0.33433283358320837,1326.7399267399267,96.9829917769919,34.53128201147192,
1771002057840.1394,0.5,-5.793478260869565,-0.41304347826086957,-1.8791143028126869,-9.259126271693596,-2.9850388988629564,3997.069597069597,1732.6007326007325,1.0,4.413472706155633,226.57894736842107,-4.580152671755725,-0.2595419847328244,-2.3664122137404577,-0.2983508245877061,0.2833583208395802,-0.33883058470764615,1331.135531135531,96.9829917769919,34.53128201147192,
1771002057859.6714,0.4891304347826087,-5.793478260869565,-0.3913043478260869,-1.87672052663076,-9.230400957510472,-2.9730700179533214,4023.4432234432234,1769.9633699633698,1.0,4.413472706155633,226.57894736842107,-4.549618320610687,0.24427480916030533,-2.3664122137404577,-0.2908545727136432,0.280359820089955,-0.35082458770614694,1339.9267399267399,96.98013005358018,34.53128201147192,
1771002057879.2034,0.5217391304347826,-5.771739130434782,-0.3695652173913043,-1.859964093357271,-9.228007181328545,-2.9587073608617596,4021.978021978022,1779.4871794871794,1.0,4.413472706155633,226.57894736842107,-4.778625954198473,1.465648854961832,-1.8931297709923662,-0.28785607196401797,0.27436281859070466,-0.34332833583208394,1355.3113553113553,96.98871523229278,34.53128201147192,
1771002057898.7354,0.532608695652174,-5.793478260869565,-0.358695652173913,-1.8360263315380012,-9.244763614602034,-2.9371633752244164,4023.4432234432234,1782.4175824175823,1.0,4.418577937741701,226.31715771230503,-4.7328244274809155,1.648854961832061,-1.297709923664122,-0.2863568215892054,0.2788605697151424,-0.34632683658170915,1370.6959706959706,96.98871523229278,34.53128201147192,
1771002057918.267,0.532608695652174,-5.782608695652174,-0.34782608695652173,-1.8312387791741471,-9.22561340514662,-2.9491322561340514,4001.465201465201,1753.8461538461538,1.0,4.413472706155633,226.57894736842107,-4.564885496183206,1.83206106870229,-1.3740458015267174,-0.29535232383808097,0.27586206896551724,-0.34632683658170915,1376.5567765567764,96.98871523229278,34.53128201147192,
1771002057937.7993,0.5108695652173912,-5.83695652173913,-0.3695652173913043,-1.8551765409934171,-9.271095152603232,-2.9228007181328546,3997.069597069597,1731.8681318681317,1.0,4.418577937741701,226.31715771230503,-4.381679389312977,2.213740458015267,-1.450381679389313,-0.29685157421289354,0.2833583208395802,-0.34182908545727136,1370.6959706959706,96.98871523229278,34.53128201147192,
1771002057957.3313,0.5217391304347826,-5.826086956521739,-0.34782608695652173,-1.869539198084979,-9.275882704967085,-2.9156193895870737,4024.9084249084244,1776.5567765567764,1.0,4.413472706155633,226.57894736842107,-4.091603053435114,1.66412213740458,-1.465648854961832,-0.28785607196401797,0.272863568215892,-0.3328335832083958,1364.102564102564,96.9829917769919,34.53128201147192,
1771002057976.8633,0.532608695652174,-5.826086956521739,-0.40217391304347827,-1.8551765409934171,-9.266307600239378,-2.9682824655894673,4004.395604395604,1753.8461538461538,1.0,4.413472706155633,226.57894736842107,-4.137404580152672,0.9007633587786259,-1.450381679389313,-0.3028485757121439,0.2893553223388306,-0.3568215892053973,1359.7069597069597,96.98013005358018,34.53128201147192,
1771002057996.3953,0.5543478260869565,-5.782608695652174,-0.40217391304347827,-1.7953321364452424,-9.230400957510472,-2.9658886894075405,4026.373626373626,1778.021978021978,1.0,4.413472706155633,226.57894736842107,-3.9847328244274807,1.2061068702290076,-1.5725190839694656,-0.29685157421289354,0.2623688155922039,-0.3403298350824588,1364.8351648351647,96.98585350322942,34.53128201147192,
1771002058015.9272,0.5869565217391304,-5.771739130434782,-0.42391304347826086,-1.7857570317175344,-9.228007181328545,-2.9970077797725914,4024.9084249084244,1789.0109890109889,1.0,4.418577937741701,226.31715771230503,-4.244274809160305,0.6717557251908397,-1.7251908396946565,-0.29235382308845576,0.25487256371814093,-0.33433283358320837,1371.4285714285713,96.98585350322942,34.53128201147192,
1771002058035.4592,0.5869565217391304,-5.771739130434782,-0.40217391304347827,-1.7690005984440453,-9.211250748055056,-2.9778575703171755,4024.9084249084244,1791.2087912087911,1.0,4.413472706155633,226.57894736842107,-4.412213740458015,0.47328244274809156,-1.7862595419847327,-0.29385307346326833,0.2788605697151424,-0.34332833583208394,1369.9633699633698,96.98871523229278,34.53128201147192,
1771002058054.991,0.6086956521739131,-5.815217391304348,-0.358695652173913,-1.7809694793536803,-9.244763614602034,-2.9443447037701973,4007.326007326007,1765.5677655677655,1.0,4.418577937741701,226.31715771230503,-4.625954198473282,-0.5343511450381679,-1.7404580152671756,-0.2893553223388306,0.27136431784107945,-0.3328335832083958,1368.4981684981683,96.98871523229278,34.53128201147192,
1771002058074.523,0.5869565217391304,-5.826086956521739,-0.40217391304347827,-1.7666068222621185,-9.283064033512867,-2.9682824655894673,4002.9304029304026,1745.054945054945,1.0,4.418577937741701,226.31715771230503,-4.564885496183206,-1.3740458015267174,-2.4885496183206106,-0.29235382308845576,0.280359820089955,-0.35532233883058467,1366.3003663003662,96.98585350322942,34.53128201147192,
1771002058094.055,0.5978260869565217,-5.8478260869565215,-0.41304347826086957,-1.7881508078994615,-9.28785158587672,-2.9658886894075405,4010.25641025641,1754.5787545787546,1.0,4.413472706155633,226.57894736842107,-4.793893129770992,-0.4580152671755725,-2.8854961832061066,-0.2983508245877061,0.2818590704647676,-0.3373313343328336,1371.4285714285713,96.9829917769919,34.53128201147192,
1771002058113.587,0.5652173913043478,-5.815217391304348,-0.3913043478260869,-1.8120885697187312,-9.261520047875523,-3.0041891083183723,4024.9084249084244,1782.4175824175823,1.0,4.413472706155633,226.57894736842107,-4.381679389312977,0.8091603053435115,-3.0076335877862594,-0.2983508245877061,0.27586206896551724,-0.34782608695652173,1396.3369963369962,96.98871523229278,34.53128201147192,
1771002058133.119,0.5217391304347826,-5.804347826086956,-0.43478260869565216,-1.8264512268102933,-9.254338719329743,-3.006582884500299,4004.395604395604,1755.311355311355,1.0,4.413472706155633,226.57894736842107,-4.824427480916031,1.4961832061068703,-2.732824427480916,-0.29685157421289354,0.2788605697151424,-0.34632683658170915,1440.2930402930401,96.98871523229278,34.53128201147192,
1771002058152.651,0.532608695652174,-5.815217391304348,-0.42391304347826086,-1.8264512268102933,-9.259126271693596,-2.9730700179533214,3998.5347985347985,1738.4615384615383,1.0,4.413472706155633,226.57894736842107,-5.236641221374046,0.6259541984732824,-2.5801526717557253,-0.2863568215892054,0.28785607196401797,-0.3403298350824588,1485.7142857142856,96.9829917769919,34.53128201147192,
1771002058172.1829,0.5652173913043478,-5.815217391304348,-0.40217391304347827,-1.8240574506283662,-9.28067025733094,-2.994614003590664,4026.373626373626,1773.6263736263736,1.0,4.413472706155633,226.57894736842107,-5.312977099236641,-0.015267175572519083,-2.6259541984732824,-0.30134932533733133,0.2608695652173913,-0.3373313343328336,1512.8205128205127,96.98871523229278,34.53128201147192,
1771002058191.7148,0.6086956521739131,-5.75,-0.40217391304347827,-1.7618192698982644,-9.239976062238181,-2.987432675044883,4023.4432234432234,1780.9523809523807,1.0,4.413472706155633,226.57894736842107,-5.603053435114504,-0.8549618320610687,-3.099236641221374,-0.29235382308845576,0.28785607196401797,-0.34632683658170915,1507.6923076923076,96.98013005358018,34.53128201147192,
1771002058211.2468,0.6086956521739131,-5.771739130434782,-0.3913043478260869,-1.7713943746259724,-9.16816277678037,-2.9419509275882705,4024.9084249084244,1789.7435897435896,1.0,4.413472706155633,226.57894736842107,-5.206106870229007,-1.1603053435114503,-3.0076335877862594,-0.2893553223388306,0.2653673163418291,-0.3298350824587706,1477.6556776556777,96.98092172781114,34.53630720528308,
1771002058230.7788,0.5869565217391304,-5.782608695652174,-0.44565217391304346,-1.7713943746259724,-9.21603830041891,-2.9850388988629564,4004.395604395604,1758.2417582417581,1.0,4.413472706155633,226.57894736842107,-4.854961832061068,-1.297709923664122,-2.9770992366412212,-0.2893553223388306,0.2773613193403298,-0.3493253373313343,1421.9780219780218,96.98664522377253,34.53630720528308,
1771002058250.3108,0.5652173913043478,-5.782608695652174,-0.40217391304347827,-1.7953321364452424,-9.244763614602034,-2.9850388988629564,3997.069597069597,1733.3333333333333,1.0,4.413472706155633,226.57894736842107,-4.9465648854961835,-0.8091603053435115,-3.1755725190839694,-0.2893553223388306,0.272863568215892,-0.3448275862068965,1378.021978021978,96.98664522377253,34.53630720528308,
1771002058269.8428,0.5543478260869565,-5.804347826086956,-0.44565217391304346,-1.8049072411729503,-9.223219628964692,-2.98982645122681,4023.4432234432234,1770.6959706959706,1.0,4.413472706155633,226.57894736842107,-5.007633587786259,-0.916030534351145,-3.145038167938931,-0.29985007496251875,0.2833583208395802,-0.34782608695652173,1351.6483516483515,96.98950697599203,34.53630720528308,
1771002058289.3748,0.5434782608695652,-5.804347826086956,-0.43478260869565216,-1.7977259126271694,-9.244763614602034,-3.001795332136445,4002.9304029304026,1745.054945054945,1.0,4.413472706155633,226.57894736842107,-4.809160305343512,-2.0,-3.0229007633587783,-0.29535232383808097,0.272863568215892,-0.33883058470764615,1326.7399267399267,96.98378347437891,34.53630720528308,
1771002058308.9067,0.5543478260869565,-5.793478260869565,-0.44565217391304346,-1.85278276481149,-9.2327947336924,-3.023339317773788,4024.9084249084244,1780.2197802197802,1.0,4.413472706155633,226.57894736842107,-4.870229007633587,-1.618320610687023,-3.2671755725190836,-0.28785607196401797,0.27136431784107945,-0.3328335832083958,1317.216117216117,96.98378347437891,34.53630720528308,
1771002058328.4387,0.5543478260869565,-5.782608695652174,-0.45652173913043476,-1.8240574506283662,-9.189706762417714,-3.020945541591861,4023.4432234432234,1783.150183150183,1.0,4.413472706155633,226.57894736842107,-4.65648854961832,-0.9465648854961831,-2.9770992366412212,-0.29535232383808097,0.2623688155922039,-0.34182908545727136,1331.135531135531,96.98950697599203,34.53630720528308,
1771002058347.9707,0.5543478260869565,-5.771739130434782,-0.43478260869565216,-1.850388988629563,-9.170556552962298,-3.023339317773788,4021.978021978022,1783.150183150183,1.0,4.418577937741701,226.31715771230503,-5.114503816793893,-0.9465648854961831,-2.931297709923664,-0.29385307346326833,0.2908545727136432,-0.3523238380809595,1347.985347985348,96.98950697599203,34.53630720528308,
1771002058367.5027,0.5,-5.728260869565217,-0.44565217391304346,-1.8551765409934171,-9.158587672052663,-3.030520646319569,4023.4432234432234,1784.6153846153845,1.0,4.413472706155633,226.57894736842107,-4.778625954198473,-0.5038167938931297,-2.213740458015267,-0.2908545727136432,0.26836581709145424,-0.3328335832083958,1358.974358974359,96.98378347437891,34.53630720528308,
1771002058387.035,0.532608695652174,-5.771739130434782,-0.45652173913043476,-1.8312387791741471,-9.20885697187313,-3.020945541591861,4023.4432234432234,1784.6153846153845,1.0,4.413472706155633,226.57894736842107,-5.083969465648854,-0.9923664122137404,-2.3664122137404577,-0.2848575712143928,0.27586206896551724,-0.33883058470764615,1369.9633699633698,96.98664522377253,34.53630720528308,
1771002058406.567,0.5543478260869565,-5.782608695652174,-0.46739130434782605,-1.8240574506283662,-9.211250748055056,-3.011370436864153,3997.069597069597,1740.6593406593406,1.0,4.413472706155633,226.57894736842107,-4.8396946564885495,-0.48854961832061067,-1.9389312977099236,-0.2893553223388306,0.27586206896551724,-0.3373313343328336,1369.9633699633698,96.98378347437891,34.53630720528308,
1771002058426.0986,0.532608695652174,-5.771739130434782,-0.45652173913043476,-1.8216636744464392,-9.187312986235787,-3.03770197486535,4023.4432234432234,1772.8937728937728,1.0,4.413472706155633,226.57894736842107,-5.007633587786259,0.12213740458015267,-2.045801526717557,-0.2983508245877061,0.2788605697151424,-0.34632683658170915,1361.904761904762,96.98950697599203,34.53630720528308,
1771002058445.6306,0.5543478260869565,-5.75,-0.45652173913043476,-1.8192698982645121,-9.194494314781569,-3.042489527229204,4002.9304029304026,1745.7875457875457,1.0,4.413472706155633,226.57894736842107,-4.748091603053435,0.366412213740458,-1.7557251908396947,-0.29985007496251875,0.27586206896551724,-0.34632683658170915,1347.2527472527472,96.98378347437891,34.53630720528308,
1771002058465.1624,0.5543478260869565,-5.771739130434782,-0.4782608695652174,-1.8264512268102933,-9.196888090963494,-3.03770197486535,3997.069597069597,1729.6703296703295,1.0,4.413472706155633,226.57894736842107,-4.473282442748092,0.38167938931297707,-1.450381679389313,-0.29985007496251875,0.2863568215892054,-0.3403298350824588,1339.9267399267399,96.98950697599203,34.53630720528308,
1771002058484.6943,0.5434782608695652,-5.782608695652174,-0.41304347826086957,-1.82884500299222,-9.213644524236983,-3.042489527229204,4023.4432234432234,1769.9633699633698,1.0,4.413472706155633,226.57894736842107,-4.351145038167939,0.2595419847328244,-1.6335877862595418,-0.28785607196401797,0.26836581709145424,-0.3298350824587706,1345.054945054945,96.98664522377253,34.53630720528308,
1771002058504.2263,0.5434782608695652,-5.771739130434782,-0.4891304347826087,-1.8168761220825853,-9.20885697187313,-3.032914422501496,4023.4432234432234,1780.9523809523807,1.0,4.413472706155633,226.57894736842107,-4.076335877862595,0.5801526717557252,-1.5725190839694656,-0.29535232383808097,0.2698650674662669,-0.35532233883058467,1350.18315018315,96.99523048890859,34.53630720528308,
1771002058523.7583,0.532608695652174,-5.760869565217392,-0.46739130434782605,-1.8456014362657092,-9.211250748055056,-3.056852184320766,4002.9304029304026,1742.124542124542,1.0,4.413472706155633,226.57894736842107,-4.442748091603053,0.9770992366412213,-1.648854961832061,-0.29985007496251875,0.2593703148425787,-0.33433283358320837,1356.0439560439559,96.98664522377253,34.53630720528308,
1771002058543.2903,0.5434782608695652,-5.771739130434782,-0.46739130434782605,-1.8312387791741471,-9.228007181328545,-3.03770197486535,4007.326007326007,1751.6483516483515,1.0,4.413472706155633,226.57894736842107,-3.9236641221374042,1.0076335877862594,-1.5572519083969465,-0.30134932533733133,0.2773613193403298,-0.35082458770614694,1353.8461538461538,96.98950697599203,34.53630720528308,
1771002058562.8225,0.5217391304347826,-5.793478260869565,-0.45652173913043476,-1.8360263315380012,-9.213644524236983,-3.040095751047277,3997.069597069597,1731.135531135531,1.0,4.413472706155633,226.57894736842107,-4.015267175572519,0.9007633587786259,-1.3587786259541985,-0.29385307346326833,0.2833583208395802,-0.34182908545727136,1347.985347985348,96.98950697599203,34.53630720528308,
1771002058582.3542,0.532608695652174,-5.782608695652174,-0.5108695652173912,-1.8192698982645121,-9.239976062238181,-3.054458408138839,4024.9084249084244,1776.5567765567764,1.0,4.413472706155633,226.57894736842107,-4.076335877862595,1.129770992366412,-1.5877862595419847,-0.29385307346326833,0.2773613193403298,-0.33433283358320837,1349.4505494505493,96.98950697599203,34.53630720528308,
1771002058601.8862,0.5760869565217391,-5.771739130434782,-0.4891304347826087,-1.8240574506283662,-9.22561340514662,-3.06163973668462,4002.9304029304026,1747.2527472527472,1.0,4.413472706155633,226.57894736842107,-4.1679389312977095,1.099236641221374,-1.3282442748091603,-0.2983508245877061,0.27136431784107945,-0.34332833583208394,1366.3003663003662,96.98378347437891,34.53630720528308,
1771002058621.4182,0.5760869565217391,-5.75,-0.45652173913043476,-1.7977259126271694,-9.199281867145421,-3.035308198683423,4024.9084249084244,1780.9523809523807,1.0,4.413472706155633,226.57894736842107,-4.854961832061068,1.8625954198473282,-1.3435114503816794,-0.29385307346326833,0.2848575712143928,-0.34182908545727136,1390.4761904761904,96.98378347437891,34.53630720528308,
1771002058640.9502,0.5869565217391304,-5.771739130434782,-0.43478260869565216,-1.7929383602633153,-9.18491921005386,-3.044883303411131,4024.9084249084244,1789.7435897435896,1.0,4.413472706155633,226.57894736842107,-4.519083969465648,2.1526717557251906,-1.3587786259541985,-0.2893553223388306,0.28785607196401797,-0.3448275862068965,1405.128205128205,96.98950697599203,34.53630720528308,
1771002058660.4822,0.5760869565217391,-5.771739130434782,-0.44565217391304346,-1.7929383602633153,-9.206463195691203,-3.032914422501496,4023.4432234432234,1786.080586080586,1.0,4.413472706155633,226.57894736842107,-4.229007633587786,2.1068702290076335,-0.916030534351145,-0.29385307346326833,0.2848575712143928,-0.335832083958021,1402.197802197802,96.98950697599203,34.53630720528308,
1771002058680.0142,0.5760869565217391,-5.815217391304348,-0.43478260869565216,-1.7857570317175344,-9.249551166965889,-3.006582884500299,4026.373626373626,1786.8131868131868,1.0,4.413472706155633,226.57894736842107,-4.152671755725191,1.7404580152671756,-1.0076335877862594,-0.3058470764617691,0.2833583208395802,-0.33883058470764615,1386.8131868131868,96.98950697599203,34.53630720528308,
1771002058699.546,0.5652173913043478,-5.858695652173913,-0.43478260869565216,-1.7953321364452424,-9.28785158587672,-2.9922202274087373,4010.25641025641,1766.3003663003662,1.0,4.413472706155633,226.57894736842107,-4.366412213740458,2.091603053435114,-1.66412213740458,-0.3043478260869565,0.280359820089955,-0.33883058470764615,1361.904761904762,96.98664522377253,34.53630720528308,
1771002058719.078,0.5869565217391304,-5.815217391304348,-0.43478260869565216,-1.7881508078994615,-9.268701376421305,-3.0041891083183723,3998.5347985347985,1741.3919413919414,1.0,4.413472706155633,226.57894736842107,-4.137404580152672,1.5877862595419847,-1.66412213740458,-0.29985007496251875,0.26686656671664166,-0.32533733133433285,1343.5897435897434,96.98664522377253,34.53630720528308,
1771002058738.61,0.6086956521739131,-5.782608695652174,-0.3913043478260869,-1.7354877318970676,-9.220825852782765,-2.999401555954518,4024.9084249084244,1779.4871794871794,1.0,4.413472706155633,226.57894736842107,-4.33587786259542,1.648854961832061,-1.4198473282442747,-0.29985007496251875,0.2638680659670165,-0.3298350824587706,1345.7875457875457,96.97805998406922,34.53630720528308,
1771002058758.142,0.6630434782608695,-5.793478260869565,-0.41304347826086957,-1.7235188509874326,-9.228007181328545,-2.9778575703171755,4002.9304029304026,1747.985347985348,1.0,4.408367474569565,226.8413433700058,-3.9083969465648853,2.015267175572519,-1.450381679389313,-0.2908545727136432,0.2698650674662669,-0.3403298350824588,1357.5091575091574,96.98378347437891,34.53630720528308,
1771002058777.674,0.5978260869565217,-5.75,-0.42391304347826086,-1.7354877318970676,-9.194494314781569,-2.9922202274087373,3998.5347985347985,1736.9963369963368,1.0,4.413472706155633,226.57894736842107,-3.801526717557252,1.6030534351145038,-1.7709923664122136,-0.3028485757121439,0.280359820089955,-0.34182908545727136,1361.1721611721612,96.98092172781114,34.53630720528308,
1771002058797.206,0.6413043478260869,-5.771739130434782,-0.3804347826086956,-1.7402752842609215,-9.204069419509276,-2.963494913225613,4024.9084249084244,1778.021978021978,1.0,4.413472706155633,226.57894736842107,-3.618320610687023,0.33587786259541985,-1.9236641221374045,-0.2983508245877061,0.29235382308845576,-0.34182908545727136,1365.5677655677655,96.98378347437891,34.53630720528308,
1771002058816.738,0.5978260869565217,-5.815217391304348,-0.40217391304347827,-1.7642130460801915,-9.21603830041891,-2.963494913225613,4023.4432234432234,1782.4175824175823,1.0,4.413472706155633,226.57894736842107,-3.5267175572519083,-2.091603053435114,-2.3664122137404577,-0.29235382308845576,0.29985007496251875,-0.33883058470764615,1359.7069597069597,96.98664522377253,34.53630720528308,
1771002058836.27,0.5760869565217391,-5.815217391304348,-0.43478260869565216,-1.7690005984440453,-9.247157390783961,-3.01376421304608,4024.9084249084244,1790.4761904761904,1.0,4.413472706155633,226.57894736842107,-3.1908396946564883,-4.0,-2.900763358778626,-0.2983508245877061,0.2908545727136432,-0.33883058470764615,1360.4395604395604,96.98378347437891,34.53630720528308,
1771002058855.802,0.5869565217391304,-5.815217391304348,-0.46739130434782605,-1.7929383602633153,-9.251944943147816,-3.035308198683423,4024.9084249084244,1791.9413919413919,1.0,4.413472706155633,226.57894736842107,-3.0381679389312977,-3.16030534351145,-3.3740458015267176,-0.29385307346326833,0.2518740629685157,-0.3403298350824588,1382.4175824175823,96.98092172781114,34.53630720528308,
1771002058875.334,0.5652173913043478,-5.760869565217392,-0.44565217391304346,-1.8120885697187312,-9.211250748055056,-3.040095751047277,4024.9084249084244,1793.4065934065932,1.0,4.413472706155633,226.57894736842107,-2.916030534351145,-2.045801526717557,-3.32824427480916,-0.29535232383808097,0.2593703148425787,-0.33433283358320837,1422.7106227106226,96.97805998406922,34.53630720528308,
1771002058894.8655,0.5543478260869565,-5.75,-0.41304347826086957,-1.8073010173548774,-9.204069419509276,-2.982645122681029,4023.4432234432234,1787.5457875457873,1.0,4.413472706155633,226.57894736842107,-3.5267175572519083,-1.0687022900763359,-2.610687022900763,-0.29985007496251875,0.27586206896551724,-0.3583208395802099,1464.4688644688645,96.98378347437891,34.53630720528308,
1771002058914.3977,0.5760869565217391,-5.826086956521739,-0.42391304347826086,-1.8001196888090962,-9.249551166965889,-3.0041891083183723,4001.465201465201,1755.311355311355,1.0,4.413472706155633,226.57894736842107,-3.7557251908396947,-1.114503816793893,-1.816793893129771,-0.29685157421289354,0.26686656671664166,-0.34182908545727136,1495.2380952380952,96.98950697599203,34.53630720528308,
1771002058933.9297,0.6086956521739131,-5.782608695652174,-0.44565217391304346,-1.7881508078994615,-9.239976062238181,-2.999401555954518,3997.069597069597,1731.8681318681317,1.0,4.413472706155633,226.57894736842107,-3.6488549618320607,-0.916030534351145,-2.0610687022900764,-0.29535232383808097,0.272863568215892,-0.3448275862068965,1506.9597069597069,96.98378347437891,34.53630720528308,
1771002058953.4617,0.5652173913043478,-5.771739130434782,-0.42391304347826086,-1.8025134649910233,-9.22561340514662,-3.001795332136445,4023.4432234432234,1770.6959706959706,1.0,4.413472706155633,226.57894736842107,-3.5114503816793894,-1.2519083969465647,-1.66412213740458,-0.29685157421289354,0.2863568215892054,-0.34332833583208394,1495.2380952380952,96.99236873103737,34.53630720528308,
1771002058972.9937,0.5434782608695652,-5.75,-0.45652173913043476,-1.8120885697187312,-9.201675643327349,-3.030520646319569,4021.978021978022,1779.4871794871794,1.0,4.408367474569565,226.8413433700058,-3.450381679389313,-0.8244274809160305,-2.4122137404580153,-0.29685157421289354,0.29985007496251875,-0.33433283358320837,1463.003663003663,96.98950697599203,34.53630720528308,
1771002058992.5256,0.5760869565217391,-5.760869565217392,-0.40217391304347827,-1.8025134649910233,-9.211250748055056,-3.0281268701376423,3999.9999999999995,1746.5201465201465,1.0,4.413472706155633,226.57894736842107,-3.7709923664122136,-0.9465648854961831,-2.519083969465649,-0.2908545727136432,0.2833583208395802,-0.35532233883058467,1430.03663003663,96.98378347437891,34.53630720528308,
1771002059012.0576,0.5760869565217391,-5.771739130434782,-0.41304347826086957,-1.8120885697187312,-9.172950329144225,-2.9682824655894673,4023.4432234432234,1774.3589743589741,1.0,4.413472706155633,226.57894736842107,-3.6488549618320607,-2.3664122137404577,-2.213740458015267,-0.29535232383808097,0.2893553223388306,-0.33433283358320837,1410.2564102564102,96.98092172781114,34.53630720528308,
1771002059031.5896,0.5652173913043478,-5.804347826086956,-0.43478260869565216,-1.7761819269898265,-9.244763614602034,-3.006582884500299,4021.978021978022,1780.9523809523807,1.0,4.413472706155633,226.57894736842107,-3.2519083969465647,-2.381679389312977,-2.519083969465649,-0.29235382308845576,0.2908545727136432,-0.3493253373313343,1396.3369963369962,96.98664522377253,34.53630720528308,
1771002059051.1216,0.5543478260869565,-5.826086956521739,-0.4891304347826087,-1.8336325553560742,-9.26391382405745,-3.018551765409934,4023.4432234432234,1783.150183150183,1.0,4.413472706155633,226.57894736842107,-3.068702290076336,-2.2748091603053435,-3.282442748091603,-0.29235382308845576,0.272863568215892,-0.3448275862068965,1372.161172161172,96.98950697599203,34.53630720528308,
1771002059070.6536,0.5217391304347826,-5.815217391304348,-0.4891304347826087,-1.8479952124476362,-9.307001795332136,-3.064033512866547,3999.9999999999995,1747.985347985348,1.0,4.413472706155633,226.57894736842107,-2.9770992366412212,-1.3893129770992365,-3.0534351145038165,-0.29385307346326833,0.280359820089955,-0.3538230884557721,1365.5677655677655,96.97519824315317,34.53630720528308,
1771002059090.1855,0.5434782608695652,-5.793478260869565,-0.45652173913043476,-1.8360263315380012,-9.254338719329743,-3.064033512866547,4024.9084249084244,1780.9523809523807,1.0,4.413472706155633,226.57894736842107,-3.709923664122137,-0.6564885496183206,-2.4122137404580153,-0.29535232383808097,0.2788605697151424,-0.3373313343328336,1376.5567765567764,96.98950697599203,34.53630720528308,
1771002059109.7175,0.5434782608695652,-5.771739130434782,-0.45652173913043476,-1.8456014362657092,-9.192100538599641,-3.040095751047277,4024.9084249084244,1789.7435897435896,1.0,4.413472706155633,226.57894736842107,-3.9389312977099236,0.366412213740458,-1.7862595419847327,-0.2893553223388306,0.2773613193403298,-0.33883058470764615,1397.069597069597,96.98378347437891,34.53630720528308,
1771002059129.2495,0.5760869565217391,-5.760869565217392,-0.45652173913043476,-1.7857570317175344,-9.201675643327349,-3.035308198683423,4024.9084249084244,1792.6739926739926,1.0,4.413472706155633,226.57894736842107,-4.366412213740458,1.2213740458015268,-1.83206106870229,-0.29535232383808097,0.2698650674662669,-0.3373313343328336,1417.5824175824175,96.98950697599203,34.53630720528308,
1771002059148.7815,0.5760869565217391,-5.771739130434782,-0.41304347826086957,-1.8096947935368042,-9.21603830041891,-3.0089766606822264,4024.9084249084244,1793.4065934065932,1.0,4.408367474569565,226.8413433700058,-3.969465648854962,1.66412213740458,-1.9083969465648853,-0.2983508245877061,0.2893553223388306,-0.34782608695652173,1412.4542124542124,96.98092172781114,34.53630720528308,
1771002059168.3137,0.5434782608695652,-5.793478260869565,-0.41304347826086957,-1.8312387791741471,-9.201675643327349,-2.999401555954518,4016.117216117216,1776.5567765567764,1.0,4.408367474569565,226.8413433700058,-4.122137404580153,1.3587786259541985,-2.1526717557251906,-0.29535232383808097,0.29385307346326833,-0.34332833583208394,1387.5457875457876,96.98378347437891,34.53630720528308,
1771002059187.8457,0.5760869565217391,-5.793478260869565,-0.41304347826086957,-1.8192698982645121,-9.2327947336924,-2.9778575703171755,4024.9084249084244,1788.278388278388,1.0,4.408367474569565,226.8413433700058,-3.618320610687023,0.15267175572519084,-1.8931297709923662,-0.2893553223388306,0.2593703148425787,-0.3328335832083958,1371.4285714285713,96.98950697599203,34.53630720528308,
1771002059207.3774,0.5434782608695652,-5.815217391304348,-0.3913043478260869,-1.8144823459006583,-9.26391382405745,-3.001795332136445,4026.373626373626,1787.5457875457873,1.0,4.408367474569565,226.8413433700058,-4.091603053435114,0.015267175572519083,-1.816793893129771,-0.2983508245877061,0.2698650674662669,-0.33433283358320837,1374.3589743589744,96.98950697599203,34.53630720528308,
1771002059226.9094,0.5434782608695652,-5.782608695652174,-0.42391304347826086,-1.8264512268102933,-9.244763614602034,-2.999401555954518,4001.465201465201,1755.311355311355,1.0,4.408367474569565,226.8413433700058,-3.9236641221374042,0.15267175572519084,-2.198473282442748,-0.29685157421289354,0.27586206896551724,-0.33883058470764615,1384.6153846153845,96.98664522377253,34.53630720528308,
1771002059246.4414,0.5543478260869565,-5.793478260869565,-0.44565217391304346,-1.8001196888090962,-9.235188509874327,-3.0161579892280073,3998.5347985347985,1739.194139194139,1.0,4.408367474569565,226.8413433700058,-3.7709923664122136,0.32061068702290074,-1.984732824427481,-0.29685157421289354,0.272863568215892,-0.35532233883058467,1397.069597069597,96.98664522377253,34.53630720528308,
1771002059265.9734,0.5543478260869565,-5.771739130434782,-0.43478260869565216,-1.8001196888090962,-9.187312986235787,-3.020945541591861,4026.373626373626,1774.3589743589741,1.0,4.408367474569565,226.8413433700058,-4.045801526717557,0.5954198473282443,-1.816793893129771,-0.29235382308845576,0.26686656671664166,-0.34632683658170915,1388.278388278388,96.98950697599203,34.53630720528308,
1771002059285.5054,0.5543478260869565,-5.760869565217392,-0.42391304347826086,-1.7977259126271694,-9.213644524236983,-3.0041891083183723,4023.4432234432234,1781.6849816849815,1.0,4.408367474569565,226.8413433700058,-4.076335877862595,0.7786259541984732,-1.7709923664122136,-0.29985007496251875,0.28785607196401797,-0.34782608695652173,1381.6849816849815,96.98950697599203,34.53630720528308,
1771002059305.037,0.5434782608695652,-5.793478260869565,-0.44565217391304346,-1.8049072411729503,-9.228007181328545,-3.030520646319569,4026.373626373626,1784.6153846153845,1.0,4.408367474569565,226.8413433700058,-4.396946564885496,0.916030534351145,-1.450381679389313,-0.29685157421289354,0.27436281859070466,-0.3448275862068965,1381.6849816849815,96.98664522377253,34.53630720528308,
1771002059324.569,0.5543478260869565,-5.815217391304348,-0.44565217391304346,-1.8144823459006583,-9.259126271693596,-3.020945541591861,4024.9084249084244,1791.2087912087911,1.0,4.408367474569565,226.8413433700058,-4.137404580152672,1.2213740458015268,-1.3435114503816794,-0.29985007496251875,0.2653673163418291,-0.33883058470764615,1377.2893772893772,96.98378347437891,34.53630720528308,
1771002059344.101,0.5434782608695652,-5.804347826086956,-0.44565217391304346,-1.8096947935368042,-9.239976062238181,-2.999401555954518,3997.069597069597,1742.8571428571427,1.0,4.408367474569565,226.8413433700058,-4.152671755725191,2.1068702290076335,-1.114503816793893,-0.29235382308845576,0.25487256371814093,-0.3448275862068965,1370.6959706959706,96.98950697599203,34.53630720528308,
1771002059363.633,0.5760869565217391,-5.793478260869565,-0.41304347826086957,-1.7905445840813883,-9.239976062238181,-2.975463794135248,4026.373626373626,1775.091575091575,1.0,4.413472706155633,226.57894736842107,-4.427480916030534,2.4427480916030535,-1.4809160305343512,-0.29535232383808097,0.2833583208395802,-0.35082458770614694,1365.5677655677655,96.98378347437891,34.53630720528308,
1771002059383.165,0.5652173913043478,-5.771739130434782,-0.3695652173913043,-1.7929383602633153,-9.196888090963494,-2.9443447037701973,4002.9304029304026,1747.2527472527472,1.0,4.413472706155633,226.57894736842107,-4.229007633587786,1.6946564885496183,-1.2213740458015268,-0.29535232383808097,0.2608695652173913,-0.3268365817091454,1368.4981684981683,96.99236873103737,34.53630720528308,
1771002059402.697,0.5869565217391304,-5.771739130434782,-0.3804347826086956,-1.7618192698982644,-9.213644524236983,-2.9467384799521246,4026.373626373626,1775.8241758241757,1.0,4.408367474569565,226.8413433700058,-4.0,1.5114503816793892,-1.297709923664122,-0.3028485757121439,0.272863568215892,-0.3403298350824588,1378.7545787545787,96.98378347437891,34.53630720528308,
1771002059422.229,0.5978260869565217,-5.83695652173913,-0.3804347826086956,-1.7953321364452424,-9.20885697187313,-2.939557151406343,4024.9084249084244,1788.278388278388,1.0,4.408367474569565,226.8413433700058,-3.4351145038167936,0.9770992366412213,-1.83206106870229,-0.28785607196401797,0.272863568215892,-0.34632683658170915,1395.6043956043954,96.98092172781114,34.53630720528308,
1771002059441.761,0.5543478260869565,-5.83695652173913,-0.40217391304347827,-1.7881508078994615,-9.254338719329743,-2.9587073608617596,4023.4432234432234,1786.080586080586,1.0,4.408367474569565,226.8413433700058,-3.633587786259542,0.33587786259541985,-1.83206106870229,-0.29685157421289354,0.2818590704647676,-0.3448275862068965,1405.128205128205,96.98664522377253,34.53630720528308,
1771002059461.293,0.5543478260869565,-5.8478260869565215,-0.3695652173913043,-1.7977259126271694,-9.35966487133453,-2.9419509275882705,4026.373626373626,1786.8131868131868,1.0,4.408367474569565,226.8413433700058,-3.847328244274809,1.1755725190839694,-1.450381679389313,-0.29385307346326833,0.2698650674662669,-0.3313343328335832,1405.128205128205,96.98950697599203,34.53630720528308,
1771002059480.825,0.5760869565217391,-5.8478260869565215,-0.42391304347826086,-1.82884500299222,-9.261520047875523,-2.9730700179533214,4024.9084249084244,1791.9413919413919,1.0,4.408367474569565,226.8413433700058,-4.061068702290076,1.114503816793893,-1.66412213740458,-0.29985007496251875,0.2698650674662669,-0.3403298350824588,1401.4652014652013,96.98378347437891,34.53630720528308,
1771002059500.357,0.6413043478260869,-5.782608695652174,-0.3913043478260869,-1.7450628366247756,-9.249551166965889,-2.98982645122681,4024.9084249084244,1792.6739926739926,1.0,4.408367474569565,226.8413433700058,-4.030534351145038,1.618320610687023,-1.7404580152671756,-0.29685157421289354,0.2593703148425787,-0.3523238380809595,1401.4652014652013,96.98950697599203,34.53630720528308,
1771002059519.889,0.6521739130434783,-5.793478260869565,-0.358695652173913,-1.7330939557151406,-9.22561340514662,-2.9347695990424896,4024.9084249084244,1793.4065934065932,1.0,4.408367474569565,226.8413433700058,-4.091603053435114,2.2748091603053435,-1.083969465648855,-0.29385307346326833,0.26686656671664166,-0.3268365817091454,1394.139194139194,96.98664522377253,34.53630720528308,
1771002059539.421,0.6086956521739131,-5.771739130434782,-0.34782608695652173,-1.7354877318970676,-9.201675643327349,-2.9323758228605623,3999.9999999999995,1756.7765567765566,1.0,4.408367474569565,226.8413433700058,-3.8625954198473282,1.4351145038167938,-1.0534351145038168,-0.2893553223388306,0.2773613193403298,-0.3403298350824588,1378.7545787545787,96.98950697599203,34.53630720528308,
1771002059558.953,0.5869565217391304,-5.815217391304348,-0.34782608695652173,-1.7881508078994615,-9.235188509874327,-2.9228007181328546,3997.069597069597,1732.6007326007325,1.0,4.408367474569565,226.8413433700058,-3.5572519083969465,-1.2671755725190839,-1.83206106870229,-0.29385307346326833,0.2818590704647676,-0.3538230884557721,1366.3003663003662,96.98950697599203,34.53630720528308,
1771002059578.4849,0.5760869565217391,-5.826086956521739,-0.41304347826086957,-1.7402752842609215,-9.283064033512867,-2.963494913225613,4023.4432234432234,1770.6959706959706,1.0,4.408367474569565,226.8413433700058,-3.2671755725190836,-2.946564885496183,-2.16793893129771,-0.30134932533733133,0.26686656671664166,-0.34332833583208394,1364.8351648351647,96.98378347437891,34.53630720528308,
1771002059598.0168,0.5978260869565217,-5.83695652173913,-0.40217391304347827,-1.7809694793536803,-9.285457809694794,-2.9611011370436864,4021.978021978022,1779.4871794871794,1.0,4.408367474569565,226.8413433700058,-3.1755725190839694,-2.564885496183206,-2.595419847328244,-0.2983508245877061,0.2773613193403298,-0.34332833583208394,1383.150183150183,96.99523048890859,34.53630720528308,
1771002059617.5488,0.6195652173913043,-5.804347826086956,-0.3913043478260869,-1.7618192698982644,-9.273488928785158,-2.9970077797725914,3997.069597069597,1739.194139194139,1.0,4.408367474569565,226.8413433700058,-3.7709923664122136,-0.8091603053435115,-2.0763358778625953,-0.29685157421289354,0.2773613193403298,-0.3493253373313343,1424.1758241758241,96.98378347437891,34.53630720528308,
1771002059637.0808,0.5978260869565217,-5.793478260869565,-0.3913043478260869,-1.7977259126271694,-9.239976062238181,-2.987432675044883,4023.4432234432234,1772.161172161172,1.0,4.408367474569565,226.8413433700058,-4.213740458015267,0.2748091603053435,-2.3664122137404577,-0.3028485757121439,0.27136431784107945,-0.3373313343328336,1480.5860805860805,96.98664522377253,34.53630720528308,
1771002059656.6128,0.5869565217391304,-5.815217391304348,-0.40217391304347827,-1.7833632555356074,-9.247157390783961,-2.9658886894075405,3995.6043956043954,1741.3919413919414,1.0,4.408367474569565,226.8413433700058,-4.045801526717557,1.3587786259541985,-2.0763358778625953,-0.30134932533733133,0.29235382308845576,-0.3523238380809595,1527.4725274725274,96.98664522377253,34.53630720528308,
1771002059676.1448,0.5978260869565217,-5.83695652173913,-0.3804347826086956,-1.7809694793536803,-9.28785158587672,-2.9563135846798323,4023.4432234432234,1772.8937728937728,1.0,4.408367474569565,226.8413433700058,-4.213740458015267,1.2213740458015268,-2.0763358778625953,-0.2908545727136432,0.280359820089955,-0.3448275862068965,1569.9633699633698,96.98950697599203,34.53630720528308,
1771002059695.6768,0.5652173913043478,-5.826086956521739,-0.3913043478260869,-1.8001196888090962,-9.273488928785158,-2.9730700179533214,4001.465201465201,1750.9157509157508,1.0,4.408367474569565,226.8413433700058,-4.2748091603053435,0.9007633587786259,-2.1374045801526718,-0.3043478260869565,0.2638680659670165,-0.3493253373313343,1591.9413919413919,96.98092172781114,34.53630720528308,
1771002059715.2085,0.5760869565217391,-5.793478260869565,-0.3695652173913043,-1.7809694793536803,-9.22561340514662,-2.9371633752244164,3997.069597069597,1730.4029304029302,1.0,4.408367474569565,226.8413433700058,-3.969465648854962,0.6564885496183206,-2.1068702290076335,-0.29535232383808097,0.2593703148425787,-0.34332833583208394,1574.3589743589744,96.98664522377253,34.53630720528308,
1771002059734.7405,0.5869565217391304,-5.771739130434782,-0.42391304347826086,-1.7666068222621185,-9.230400957510472,-2.963494913225613,4024.9084249084244,1775.8241758241757,1.0,4.408367474569565,226.8413433700058,-4.076335877862595,0.0916030534351145,-2.045801526717557,-0.30134932533733133,0.27136431784107945,-0.3448275862068965,1536.263736263736,96.99236873103737,34.53630720528308,
1771002059754.2725,0.5760869565217391,-5.804347826086956,-0.41304347826086957,-1.7809694793536803,-9.237582286056254,-2.951526032315978,4023.4432234432234,1781.6849816849815,1.0,4.408367474569565,226.8413433700058,-3.7862595419847325,0.061068702290076333,-2.595419847328244,-0.29385307346326833,0.27586206896551724,-0.3583208395802099,1490.8424908424906,96.99523048890859,34.53630720528308,
1771002059773.8044,0.5760869565217391,-5.815217391304348,-0.40217391304347827,-1.7857570317175344,-9.235188509874327,-2.963494913225613,4024.9084249084244,1789.7435897435896,1.0,4.408367474569565,226.8413433700058,-3.8931297709923665,-0.7480916030534351,-2.854961832061069,-0.29685157421289354,0.27136431784107945,-0.3403298350824588,1427.106227106227,96.98950697599203,34.53630720528308,
1771002059793.3364,0.5652173913043478,-5.804347826086956,-0.42391304347826086,-1.7905445840813883,-9.26391382405745,-2.9563135846798323,4024.9084249084244,1791.9413919413919,1.0,4.408367474569565,226.8413433700058,-4.076335877862595,-0.9770992366412213,-2.6259541984732824,-0.29985007496251875,0.280359820089955,-0.33433283358320837,1388.278388278388,96.98664522377253,34.53630720528308,
1771002059812.8684,0.5543478260869565,-5.815217391304348,-0.41304347826086957,-1.8025134649910233,-9.249551166965889,-2.999401555954518,4024.9084249084244,1793.4065934065932,1.0,4.408367474569565,226.8413433700058,-4.366412213740458,-0.21374045801526717,-2.2748091603053435,-0.29985007496251875,0.2698650674662669,-0.33883058470764615,1373.6263736263736,96.97805998406922,34.53630720528308,
1771002059832.4004,0.5652173913043478,-5.793478260869565,-0.41304347826086957,-1.8025134649910233,-9.228007181328545,-2.98982645122681,4024.9084249084244,1793.4065934065932,1.0,4.408367474569565,226.8413433700058,-4.198473282442748,0.5038167938931297,-2.1374045801526718,-0.29685157421289354,0.26686656671664166,-0.3403298350824588,1361.1721611721612,96.99236873103737,34.53630720528308,
1771002059851.9324,0.5869565217391304,-5.771739130434782,-0.3804347826086956,-1.7905445840813883,-9.211250748055056,-2.9802513464991023,4001.465201465201,1756.7765567765566,1.0,4.408367474569565,226.8413433700058,-4.396946564885496,1.7709923664122136,-1.6793893129770991,-0.30134932533733133,0.2638680659670165,-0.34182908545727136,1369.9633699633698,96.99236873103737,34.53630720528308,
1771002059871.4644,0.5760869565217391,-5.782608695652174,-0.3913043478260869,-1.7905445840813883,-9.206463195691203,-2.9587073608617596,3998.5347985347985,1739.194139194139,1.0,4.408367474569565,226.8413433700058,-4.183206106870228,1.297709923664122,-1.450381679389313,-0.29685157421289354,0.26686656671664166,-0.34332833583208394,1393.4065934065934,96.98950697599203,34.53630720528308,
1771002059890.9963,0.5869565217391304,-5.804347826086956,-0.3913043478260869,-1.7857570317175344,-9.2327947336924,-2.9563135846798323,4024.9084249084244,1778.7545787545787,1.0,4.408367474569565,226.8413433700058,-4.183206106870228,0.6564885496183206,-1.3129770992366412,-0.30134932533733133,0.26686656671664166,-0.3403298350824588,1416.8498168498168,96.98664522377253,34.53630720528308,
1771002059910.5283,0.5978260869565217,-5.804347826086956,-0.3695652173913043,-1.7785757031717535,-9.244763614602034,-2.9587073608617596,4024.9084249084244,1789.0109890109889,1.0,4.408367474569565,226.8413433700058,-4.091603053435114,0.7022900763358778,-1.618320610687023,-0.2908545727136432,0.27436281859070466,-0.3373313343328336,1430.7692307692307,96.98664522377253,34.53630720528308,
1771002059930.0603,0.5869565217391304,-5.793478260869565,-0.40217391304347827,-1.7713943746259724,-9.26391382405745,-2.9587073608617596,4024.9084249084244,1792.6739926739926,1.0,4.408367474569565,226.8413433700058,-3.9389312977099236,0.9618320610687022,-1.6335877862595418,-0.29685157421289354,0.280359820089955,-0.3448275862068965,1434.4322344322343,96.98664522377253,34.53630720528308,
1771002059949.5923,0.5869565217391304,-5.826086956521739,-0.3913043478260869,-1.7737881508078994,-9.259126271693596,-2.975463794135248,4020.5128205128203,1779.4871794871794,1.0,4.408367474569565,226.8413433700058,-4.152671755725191,1.2519083969465647,-1.5267175572519083,-0.2908545727136432,0.2848575712143928,-0.3493253373313343,1432.9670329670328,96.98092172781114,34.53630720528308,
1771002059969.1245,0.5760869565217391,-5.804347826086956,-0.40217391304347827,-1.7737881508078994,-9.239976062238181,-2.9611011370436864,4024.9084249084244,1789.7435897435896,1.0,4.408367474569565,226.8413433700058,-4.366412213740458,1.5572519083969465,-1.5267175572519083,-0.2983508245877061,0.27136431784107945,-0.34182908545727136,1429.3040293040292,96.98664522377253,34.53630720528308,
1771002059988.6562,0.6195652173913043,-5.815217391304348,-0.3913043478260869,-1.7522441651705565,-9.25673249551167,-2.9611011370436864,4024.9084249084244,1792.6739926739926,1.0,4.408367474569565,226.8413433700058,-3.9541984732824424,1.0076335877862594,-1.4198473282442747,-0.2983508245877061,0.27586206896551724,-0.3448275862068965,1418.3150183150183,96.98664522377253,34.53630720528308,
1771002060008.1882,0.5760869565217391,-5.793478260869565,-0.40217391304347827,-1.7594254937163374,-9.235188509874327,-2.9563135846798323,4001.465201465201,1756.7765567765566,1.0,4.408367474569565,226.8413433700058,-3.8931297709923665,1.129770992366412,-1.7099236641221374,-0.30134932533733133,0.29235382308845576,-0.34332833583208394,1415.3846153846152,96.98950697599203,34.53630720528308,
1771002060027.7202,0.5869565217391304,-5.804347826086956,-0.3695652173913043,-1.7833632555356074,-9.237582286056254,-2.9658886894075405,4024.9084249084244,1783.150183150183,1.0,4.403262242983497,227.10434782608698,-4.015267175572519,1.7862595419847327,-1.4961832061068703,-0.29685157421289354,0.2608695652173913,-0.33883058470764615,1408.7912087912086,96.98950697599203,34.53630720528308,
1771002060047.2522,0.6086956521739131,-5.793478260869565,-0.3913043478260869,-1.7713943746259724,-9.25673249551167,-2.9491322561340514,4024.9084249084244,1789.7435897435896,1.0,4.408367474569565,226.8413433700058,-4.122137404580153,2.183206106870229,-1.4198473282442747,-0.29985007496251875,0.2608695652173913,-0.34332833583208394,1401.4652014652013,96.98950697599203,34.53630720528308,
1771002060066.7842,0.6086956521739131,-5.804347826086956,-0.34782608695652173,-1.7690005984440453,-9.268701376421305,-2.9443447037701973,4023.4432234432234,1786.080586080586,1.0,4.408367474569565,226.8413433700058,-4.33587786259542,2.5343511450381677,-0.9923664122137404,-0.30134932533733133,0.272863568215892,-0.33883058470764615,1400.0,96.98664522377253,34.53630720528308,
1771002060086.3162,0.6195652173913043,-5.826086956521739,-0.358695652173913,-1.7474566128067026,-9.283064033512867,-2.9371633752244164,3997.069597069597,1740.6593406593406,1.0,4.408367474569565,226.8413433700058,-4.152671755725191,2.3053435114503817,-1.099236641221374,-0.29385307346326833,0.272863568215892,-0.34782608695652173,1400.7326007326005,96.98092172781114,34.53630720528308,
1771002060105.848,0.6195652173913043,-5.815217391304348,-0.358695652173913,-1.7354877318970676,-9.268701376421305,-2.9180131657690005,4024.9084249084244,1778.7545787545787,1.0,4.408367474569565,226.8413433700058,-4.290076335877862,1.9083969465648853,-1.129770992366412,-0.29985007496251875,0.27436281859070466,-0.3403298350824588,1407.3260073260071,96.98092172781114,34.53630720528308,
1771002060125.38,0.6195652173913043,-5.793478260869565,-0.3695652173913043,-1.7474566128067026,-9.261520047875523,-2.9371633752244164,4023.4432234432234,1782.4175824175823,1.0,4.408367474569565,226.8413433700058,-3.847328244274809,1.297709923664122,-0.9770992366412213,-0.29985007496251875,0.2773613193403298,-0.3373313343328336,1413.9194139194137,96.98664522377253,34.53630720528308,
1771002060144.912,0.6304347826086957,-5.793478260869565,-0.3804347826086956,-1.7402752842609215,-9.259126271693596,-2.963494913225613,4023.4432234432234,1784.6153846153845,1.0,4.408367474569565,226.8413433700058,-3.847328244274809,0.8244274809160305,-1.6335877862595418,-0.2983508245877061,0.27586206896551724,-0.35082458770614694,1433.6996336996335,96.98664522377253,34.53630720528308,
1771002060164.4438,0.6086956521739131,-5.804347826086956,-0.3913043478260869,-1.7378815080789947,-9.268701376421305,-2.9443447037701973,3999.9999999999995,1747.985347985348,1.0,4.408367474569565,226.8413433700058,-3.9389312977099236,0.3053435114503817,-1.8625954198473282,-0.3043478260869565,0.27586206896551724,-0.34182908545727136,1442.4908424908424,96.98950697599203,34.53630720528308,
1771002060183.9758,0.6195652173913043,-5.793478260869565,-0.358695652173913,-1.7283064033512867,-9.26391382405745,-2.939557151406343,3997.069597069597,1730.4029304029302,1.0,4.408367474569565,226.8413433700058,-4.061068702290076,0.366412213740458,-1.8778625954198473,-0.3088455772113943,0.2638680659670165,-0.34782608695652173,1429.3040293040292,96.98950697599203,34.53630720528308,
1771002060203.5078,0.6304347826086957,-5.826086956521739,-0.358695652173913,-1.7187312986235788,-9.247157390783961,-2.9419509275882705,4023.4432234432234,1769.9633699633698,1.0,4.408367474569565,226.8413433700058,-4.183206106870228,1.4809160305343512,-1.4809160305343512,-0.29235382308845576,0.2698650674662669,-0.33883058470764615,1415.3846153846152,96.98871523229278,34.53128201147192,
1771002060223.0398,0.5978260869565217,-5.8478260869565215,-0.32608695652173914,-1.7642130460801915,-9.285457809694794,-2.8940754039497305,4023.4432234432234,1780.9523809523807,1.0,4.403262242983497,227.10434782608698,-3.969465648854962,1.7404580152671756,-1.7404580152671756,-0.29685157421289354,0.2608695652173913,-0.3448275862068965,1413.9194139194137,96.98585350322942,34.53128201147192,
1771002060242.5718,0.6086956521739131,-5.8478260869565215,-0.34782608695652173,-1.7187312986235788,-9.295032914422501,-2.8821065230400955,3997.069597069597,1738.4615384615383,1.0,4.403262242983497,227.10434782608698,-4.015267175572519,0.9923664122137404,-1.7862595419847327,-0.2908545727136432,0.26686656671664166,-0.3403298350824588,1417.5824175824175,96.99157696418192,34.53128201147192,
1771002060262.1038,0.6195652173913043,-5.826086956521739,-0.3695652173913043,-1.7522441651705565,-9.242369838420107,-2.9204069419509273,4021.978021978022,1771.4285714285713,1.0,4.403262242983497,227.10434782608698,-3.679389312977099,1.6030534351145038,-1.8625954198473282,-0.2908545727136432,0.27586206896551724,-0.33883058470764615,1409.5238095238094,96.98871523229278,34.53128201147192,
1771002060281.6355,0.6304347826086957,-5.793478260869565,-0.33695652173913043,-1.7354877318970676,-9.249551166965889,-2.9180131657690005,3995.6043956043954,1741.3919413919414,1.0,4.403262242983497,227.10434782608698,-3.7404580152671754,1.4198473282442747,-1.4045801526717556,-0.3058470764617691,0.2833583208395802,-0.3373313343328336,1391.9413919413919,96.9829917769919,34.53128201147192,
1771002060301.1675,0.6956521739130435,-5.793478260869565,-0.3804347826086956,-1.6971873129862358,-9.235188509874327,-2.9180131657690005,4024.9084249084244,1778.7545787545787,1.0,4.403262242983497,227.10434782608698,-3.480916030534351,1.282442748091603,-0.8396946564885496,-0.3103448275862069,0.2788605697151424,-0.3373313343328336,1383.8827838827838,96.98871523229278,34.53128201147192,
1771002060320.6997,0.6304347826086957,-5.804347826086956,-0.358695652173913,-1.7283064033512867,-9.242369838420107,-2.9156193895870737,3999.9999999999995,1746.5201465201465,1.0,4.403262242983497,227.10434782608698,-3.6488549618320607,0.2748091603053435,-1.1755725190839694,-0.29985007496251875,0.30134932533733133,-0.34182908545727136,1368.4981684981683,96.98585350322942,34.53128201147192,
1771002060340.2317,0.6195652173913043,-5.826086956521739,-0.3695652173913043,-1.7426690604428485,-9.268701376421305,-2.9180131657690005,3997.069597069597,1729.6703296703295,1.0,4.403262242983497,227.10434782608698,-3.5114503816793894,-1.7862595419847327,-2.015267175572519,-0.29685157421289354,0.2983508245877061,-0.3523238380809595,1364.8351648351647,96.9829917769919,34.53128201147192,
1771002060359.7637,0.6413043478260869,-5.815217391304348,-0.3695652173913043,-1.7354877318970676,-9.275882704967085,-2.9658886894075405,4024.9084249084244,1775.8241758241757,1.0,4.403262242983497,227.10434782608698,-3.2213740458015265,-3.465648854961832,-2.7938931297709924,-0.3028485757121439,0.29235382308845576,-0.35082458770614694,1384.6153846153845,96.98013005358018,34.53128201147192,
1771002060379.2957,0.5978260869565217,-5.815217391304348,-0.40217391304347827,-1.7594254937163374,-9.254338719329743,-2.9539198084979055,4023.4432234432234,1782.4175824175823,1.0,4.403262242983497,227.10434782608698,-3.3587786259541983,-2.9923664122137406,-3.0381679389312977,-0.30134932533733133,0.2863568215892054,-0.34632683658170915,1424.1758241758241,96.98013005358018,34.53128201147192,
1771002060398.8276,0.5869565217391304,-5.782608695652174,-0.40217391304347827,-1.7713943746259724,-9.239976062238181,-2.9922202274087373,4024.9084249084244,1790.4761904761904,1.0,4.408367474569565,226.8413433700058,-3.6488549618320607,-1.3740458015267174,-2.7938931297709924,-0.29985007496251875,0.2638680659670165,-0.34182908545727136,1476.1904761904761,96.9829917769919,34.53128201147192,
1771002060418.3596,0.5652173913043478,-5.804347826086956,-0.41304347826086957,-1.7929383602633153,-9.237582286056254,-2.982645122681029,4024.9084249084244,1792.6739926739926,1.0,4.403262242983497,227.10434782608698,-4.106870229007633,-0.549618320610687,-2.3206106870229006,-0.29535232383808097,0.27436281859070466,-0.34332833583208394,1521.6117216117216,96.9829917769919,34.53128201147192,
1771002060437.8916,0.5652173913043478,-5.826086956521739,-0.3804347826086956,-1.8001196888090962,-9.273488928785158,-2.9443447037701973,3997.069597069597,1742.8571428571427,1.0,4.403262242983497,227.10434782608698,-4.045801526717557,-0.12213740458015267,-1.8931297709923662,-0.2983508245877061,0.27136431784107945,-0.3493253373313343,1547.2527472527472,96.9829917769919,34.53128201147192,
1771002060457.4236,0.5869565217391304,-5.826086956521739,-0.3804347826086956,-1.7857570317175344,-9.273488928785158,-2.9371633752244164,4024.9084249084244,1779.4871794871794,1.0,4.403262242983497,227.10434782608698,-4.030534351145038,0.12213740458015267,-1.465648854961832,-0.3028485757121439,0.2773613193403298,-0.34632683658170915,1556.7765567765566,96.98585350322942,34.53128201147192,
1771002060476.9556,0.5978260869565217,-5.804347826086956,-0.358695652173913,-1.7642130460801915,-9.261520047875523,-2.963494913225613,4001.465201465201,1752.3809523809523,1.0,4.403262242983497,227.10434782608698,-4.1679389312977095,0.41221374045801523,-1.9236641221374045,-0.30134932533733133,0.27586206896551724,-0.3448275862068965,1536.9963369963368,96.98013005358018,34.53128201147192,
1771002060496.4875,0.6195652173913043,-5.815217391304348,-0.34782608695652173,-1.7618192698982644,-9.247157390783961,-2.9323758228605623,3998.5347985347985,1737.7289377289376,1.0,4.403262242983497,227.10434782608698,-4.198473282442748,0.3053435114503817,-1.4198473282442747,-0.2893553223388306,0.27586206896551724,-0.33433283358320837,1493.040293040293,96.9829917769919,34.53128201147192,
1771002060516.0195,0.6195652173913043,-5.804347826086956,-0.3913043478260869,-1.7474566128067026,-9.235188509874327,-2.9682824655894673,4024.9084249084244,1778.021978021978,1.0,4.403262242983497,227.10434782608698,-4.106870229007633,0.061068702290076333,-1.8778625954198473,-0.2983508245877061,0.2863568215892054,-0.3313343328335832,1439.5604395604394,96.9829917769919,34.53128201147192,
1771002060535.5515,0.5978260869565217,-5.804347826086956,-0.3913043478260869,-1.7666068222621185,-9.218432076600838,-2.9371633752244164,4024.9084249084244,1782.4175824175823,1.0,4.403262242983497,227.10434782608698,-4.015267175572519,0.10687022900763359,-1.7251908396946565,-0.29385307346326833,0.2563718140929535,-0.3373313343328336,1405.8608058608058,96.99157696418192,34.53128201147192,
1771002060555.0833,0.5978260869565217,-5.826086956521739,-0.40217391304347827,-1.7666068222621185,-9.249551166965889,-2.9491322561340514,4026.373626373626,1785.3479853479853,1.0,4.403262242983497,227.10434782608698,-3.83206106870229,-0.366412213740458,-2.381679389312977,-0.30134932533733133,0.26686656671664166,-0.34182908545727136,1390.4761904761904,96.98585350322942,34.53128201147192,
1771002060574.6152,0.5760869565217391,-5.826086956521739,-0.3695652173913043,-1.7977259126271694,-9.273488928785158,-2.9371633752244164,4024.9084249084244,1790.4761904761904,1.0,4.403262242983497,227.10434782608698,-3.7404580152671754,-0.9770992366412213,-2.1221374045801524,-0.29685157421289354,0.2593703148425787,-0.3313343328335832,1384.6153846153845,96.98871523229278,34.53128201147192,
1771002060594.1472,0.5760869565217391,-5.815217391304348,-0.40217391304347827,-1.7953321364452424,-9.266307600239378,-2.9419509275882705,4024.9084249084244,1792.6739926739926,1.0,4.403262242983497,227.10434782608698,-4.015267175572519,-0.6564885496183206,-2.0610687022900764,-0.29385307346326833,0.27136431784107945,-0.3268365817091454,1383.8827838827838,96.98585350322942,34.53128201147192,
1771002060613.6792,0.5760869565217391,-5.782608695652174,-0.3913043478260869,-1.7833632555356074,-9.2327947336924,-2.951526032315978,4024.9084249084244,1793.4065934065932,1.0,4.403262242983497,227.10434782608698,-3.7862595419847325,0.564885496183206,-1.9236641221374045,-0.29535232383808097,0.27586206896551724,-0.3493253373313343,1394.8717948717947,96.9829917769919,34.53128201147192,
1771002060633.2112,0.5652173913043478,-5.804347826086956,-0.3913043478260869,-1.8192698982645121,-9.228007181328545,-2.9371633752244164,4001.465201465201,1756.7765567765566,1.0,4.403262242983497,227.10434782608698,-3.877862595419847,1.1755725190839694,-1.4351145038167938,-0.29985007496251875,0.27436281859070466,-0.328335832083958,1407.3260073260071,96.98871523229278,34.53128201147192,
1771002060652.7432,0.5760869565217391,-5.793478260869565,-0.3695652173913043,-1.7929383602633153,-9.242369838420107,-2.9371633752244164,4024.9084249084244,1783.150183150183,1.0,4.403262242983497,227.10434782608698,-3.8931297709923665,1.297709923664122,-0.9007633587786259,-0.29685157421289354,0.28785607196401797,-0.34332833583208394,1419.7802197802198,96.9829917769919,34.53128201147192,
1771002060672.2751,0.5978260869565217,-5.826086956521739,-0.40217391304347827,-1.7737881508078994,-9.244763614602034,-2.9611011370436864,4024.9084249084244,1790.4761904761904,1.0,4.403262242983497,227.10434782608698,-3.6946564885496183,0.916030534351145,-1.3740458015267174,-0.2983508245877061,0.2908545727136432,-0.35082458770614694,1414.6520146520145,96.98013005358018,34.53128201147192,
1771002060691.8071,0.5978260869565217,-5.804347826086956,-0.358695652173913,-1.7522441651705565,-9.266307600239378,-2.9491322561340514,4023.4432234432234,1786.080586080586,1.0,4.403262242983497,227.10434782608698,-4.091603053435114,1.297709923664122,-1.1450381679389312,-0.29985007496251875,0.28785607196401797,-0.34782608695652173,1402.9304029304028,96.98585350322942,34.53128201147192,
1771002060711.339,0.6086956521739131,-5.793478260869565,-0.34782608695652173,-1.7570317175344106,-9.247157390783961,-2.9443447037701973,3997.069597069597,1740.6593406593406,1.0,4.403262242983497,227.10434782608698,-4.152671755725191,1.2366412213740459,-1.0687022900763359,-0.29685157421289354,0.2908545727136432,-0.34332833583208394,1393.4065934065934,96.9829917769919,34.53128201147192,
1771002060730.871,0.6086956521739131,-5.826086956521739,-0.3695652173913043,-1.7618192698982644,-9.247157390783961,-2.9251944943147814,4023.4432234432234,1772.8937728937728,1.0,4.403262242983497,227.10434782608698,-3.8625954198473282,1.114503816793893,-0.9923664122137404,-0.2893553223388306,0.2653673163418291,-0.34782608695652173,1391.9413919413919,96.98871523229278,34.53128201147192,
1771002060750.403,0.5869565217391304,-5.83695652173913,-0.3695652173913043,-1.7690005984440453,-9.271095152603232,-2.9467384799521246,3995.6043956043954,1742.124542124542,1.0,4.403262242983497,227.10434782608698,-3.7862595419847325,0.732824427480916,-1.282442748091603,-0.29535232383808097,0.280359820089955,-0.34782608695652173,1389.7435897435896,96.9829917769919,34.53128201147192,
1771002060769.935,0.5869565217391304,-5.815217391304348,-0.3695652173913043,-1.7785757031717535,-9.261520047875523,-2.9204069419509273,4023.4432234432234,1772.8937728937728,1.0,4.403262242983497,227.10434782608698,-3.7404580152671754,0.015267175572519083,-1.6030534351145038,-0.2983508245877061,0.2578710644677661,-0.3313343328335832,1390.4761904761904,96.9829917769919,34.53128201147192,
1771002060789.467,0.6086956521739131,-5.826086956521739,-0.3804347826086956,-1.7594254937163374,-9.261520047875523,-2.9419509275882705,3999.9999999999995,1745.054945054945,1.0,4.403262242983497,227.10434782608698,-4.076335877862595,0.5343511450381679,-1.4809160305343512,-0.29235382308845576,0.27436281859070466,-0.3403298350824588,1393.4065934065934,96.98585350322942,34.53128201147192,
1771002060808.999,0.6086956521739131,-5.815217391304348,-0.33695652173913043,-1.7618192698982644,-9.266307600239378,-2.9323758228605623,3997.069597069597,1728.937728937729,1.0,4.403262242983497,227.10434782608698,-3.877862595419847,0.7480916030534351,-1.7709923664122136,-0.2908545727136432,0.27586206896551724,-0.3448275862068965,1391.2087912087911,96.9829917769919,34.53128201147192,
1771002060828.531,0.5978260869565217,-5.804347826086956,-0.358695652173913,-1.7546379413524835,-9.283064033512867,-2.9323758228605623,4023.4432234432234,1769.230769230769,1.0,4.403262242983497,227.10434782608698,-4.030534351145038,1.1603053435114503,-1.1755725190839694,-0.2908545727136432,0.28785607196401797,-0.34332833583208394,1386.080586080586,96.9829917769919,34.53128201147192,
1771002060848.063,0.5978260869565217,-5.8478260869565215,-0.34782608695652173,-1.7690005984440453,-9.283064033512867,-2.9084380610412928,4021.978021978022,1779.4871794871794,1.0,4.403262242983497,227.10434782608698,-3.9389312977099236,1.6030534351145038,-1.3282442748091603,-0.3088455772113943,0.2773613193403298,-0.3373313343328336,1378.021978021978,96.9829917769919,34.53128201147192,
1771002060867.595,0.6086956521739131,-5.83695652173913,-0.358695652173913,-1.7546379413524835,-9.278276481149012,-2.9204069419509273,3997.069597069597,1739.194139194139,1.0,4.403262242983497,227.10434782608698,-3.8931297709923665,1.8931297709923662,-1.2213740458015268,-0.2983508245877061,0.272863568215892,-0.335832083958021,1369.9633699633698,96.98871523229278,34.53128201147192,
1771002060887.127,0.6195652173913043,-5.826086956521739,-0.358695652173913,-1.7546379413524835,-9.273488928785158,-2.9251944943147814,4023.4432234432234,1772.8937728937728,1.0,4.39815701139743,227.36796285548462,-4.229007633587786,1.8778625954198473,-1.4198473282442747,-0.29985007496251875,0.2653673163418291,-0.3523238380809595,1375.091575091575,96.98871523229278,34.53128201147192,
1771002060906.659,0.6304347826086957,-5.83695652173913,-0.34782608695652173,-1.7522441651705565,-9.261520047875523,-2.9060442848593655,3995.6043956043954,1741.3919413919414,1.0,4.39815701139743,227.36796285548462,-3.8625954198473282,1.5419847328244274,-1.450381679389313,-0.2983508245877061,0.2638680659670165,-0.3448275862068965,1384.6153846153845,96.98871523229278,34.53128201147192,
1771002060926.191,0.5978260869565217,-5.815217391304348,-0.34782608695652173,-1.7618192698982644,-9.247157390783961,-2.9132256134051464,4023.4432234432234,1772.8937728937728,1.0,4.39815701139743,227.36796285548462,-4.183206106870228,1.618320610687023,-1.3893129770992365,-0.29535232383808097,0.280359820089955,-0.34632683658170915,1384.6153846153845,96.9829917769919,34.53128201147192,
1771002060945.723,0.6195652173913043,-5.826086956521739,-0.32608695652173914,-1.7522441651705565,-9.273488928785158,-2.8940754039497305,4001.465201465201,1750.9157509157508,1.0,4.403262242983497,227.10434782608698,-4.33587786259542,0.6259541984732824,-1.7404580152671756,-0.3073463268365817,0.26686656671664166,-0.3298350824587706,1391.2087912087911,96.98871523229278,34.53128201147192,
1771002060965.2546,0.6086956521739131,-5.804347826086956,-0.33695652173913043,-1.7737881508078994,-9.259126271693596,-2.9108318372232196,4026.373626373626,1777.2893772893772,1.0,4.403262242983497,227.10434782608698,-3.6946564885496183,0.15267175572519084,-1.9389312977099236,-0.29985007496251875,0.27586206896551724,-0.335832083958021,1407.3260073260071,96.98585350322942,34.53128201147192,
1771002060984.7866,0.5760869565217391,-5.83695652173913,-0.33695652173913043,-1.7713943746259724,-9.295032914422501,-2.9084380610412928,4024.9084249084244,1789.0109890109889,1.0,4.39815701139743,227.36796285548462,-3.7557251908396947,0.33587786259541985,-2.0763358778625953,-0.29535232383808097,0.2908545727136432,-0.3493253373313343,1415.3846153846152,96.9829917769919,34.53128201147192,
1771002061004.3186,0.5760869565217391,-5.8478260869565215,-0.33695652173913043,-1.7953321364452424,-9.295032914422501,-2.889287851585877,4023.4432234432234,1786.080586080586,1.0,4.39815701139743,227.36796285548462,-4.030534351145038,0.42748091603053434,-1.9694656488549618,-0.29535232383808097,0.29385307346326833,-0.3523238380809595,1406.5934065934066,96.9772683329943,34.53128201147192,
1771002061023.8506,0.6086956521739131,-5.826086956521739,-0.3913043478260869,-1.7761819269898265,-9.292639138240574,-2.9275882704967087,3997.069597069597,1741.3919413919414,1.0,4.403262242983497,227.10434782608698,-3.9541984732824424,-0.030534351145038167,-2.183206106870229,-0.2983508245877061,0.27136431784107945,-0.34182908545727136,1391.2087912087911,96.9829917769919,34.53128201147192,
1771002061043.3826,0.6304347826086957,-5.793478260869565,-0.32608695652173914,-1.7163375224416517,-9.22561340514662,-2.9180131657690005,4026.373626373626,1775.091575091575,1.0,4.39815701139743,227.36796285548462,-4.076335877862595,0.32061068702290074,-1.6793893129770991,-0.29535232383808097,0.2638680659670165,-0.335832083958021,1381.6849816849815,96.9829917769919,34.53128201147192,
1771002061062.9146,0.6413043478260869,-5.804347826086956,-0.3804347826086956,-1.7235188509874326,-9.213644524236983,-2.9347695990424896,4023.4432234432234,1781.6849816849815,1.0,4.39815701139743,227.36796285548462,-3.709923664122137,1.3282442748091603,-1.3893129770992365,-0.29685157421289354,0.2833583208395802,-0.34782608695652173,1372.8937728937728,96.98585350322942,34.53128201147192,
1771002061082.4463,0.5652173913043478,-5.793478260869565,-0.31521739130434784,-1.7881508078994615,-9.247157390783961,-2.8916816277678037,4024.9084249084244,1790.4761904761904,1.0,4.39815701139743,227.36796285548462,-3.9236641221374042,1.0381679389312977,-1.3893129770992365,-0.29385307346326833,0.27136431784107945,-0.3403298350824588,1367.032967032967,96.98871523229278,34.53128201147192,
1771002061101.9785,0.5869565217391304,-5.8478260869565215,-0.34782608695652173,-1.7785757031717535,-9.283064033512867,-2.8868940754039496,4001.465201465201,1756.0439560439559,1.0,4.39815701139743,227.36796285548462,-3.6946564885496183,-0.8091603053435115,-1.6946564885496183,-0.2908545727136432,0.27586206896551724,-0.3493253373313343,1369.230769230769,96.9829917769919,34.53128201147192,
1771002061121.5105,0.5978260869565217,-5.858695652173913,-0.34782608695652173,-1.7594254937163374,-9.307001795332136,-2.9347695990424896,4026.373626373626,1778.7545787545787,1.0,4.39815701139743,227.36796285548462,-3.709923664122137,-2.9770992366412212,-2.1221374045801524,-0.29385307346326833,0.27136431784107945,-0.33883058470764615,1371.4285714285713,96.9829917769919,34.53128201147192,
1771002061141.0425,0.5978260869565217,-5.826086956521739,-0.3695652173913043,-1.7498503889886294,-9.28785158587672,-2.9299820466786355,4024.9084249084244,1789.7435897435896,1.0,4.39815701139743,227.36796285548462,-3.480916030534351,-3.49618320610687,-2.4732824427480917,-0.29235382308845576,0.28785607196401797,-0.34632683658170915,1377.2893772893772,96.9829917769919,34.53128201147192,
1771002061160.5745,0.5869565217391304,-5.793478260869565,-0.3913043478260869,-1.7666068222621185,-9.26391382405745,-2.9467384799521246,4024.9084249084244,1792.6739926739926,1.0,4.39815701139743,227.36796285548462,-3.3893129770992365,-2.351145038167939,-2.4885496183206106,-0.29535232383808097,0.2773613193403298,-0.34632683658170915,1401.4652014652013,96.98585350322942,34.53128201147192,
1771002061180.1064,0.5869565217391304,-5.782608695652174,-0.40217391304347827,-1.7713943746259724,-9.237582286056254,-2.9730700179533214,4024.9084249084244,1793.4065934065932,1.0,4.39815701139743,227.36796285548462,-4.045801526717557,-0.916030534351145,-2.183206106870229,-0.2983508245877061,0.2593703148425787,-0.34182908545727136,1453.4798534798533,96.98871523229278,34.53128201147192,
1771002061199.6384,0.5652173913043478,-5.815217391304348,-0.358695652173913,-1.8001196888090962,-9.251944943147816,-2.9419509275882705,4026.373626373626,1789.0109890109889,1.0,4.39815701139743,227.36796285548462,-4.381679389312977,0.13740458015267176,-1.6030534351145038,-0.29985007496251875,0.2653673163418291,-0.3403298350824588,1506.9597069597069,96.98871523229278,34.53128201147192,
1771002061219.1704,0.5760869565217391,-5.869565217391304,-0.3695652173913043,-1.7953321364452424,-9.28067025733094,-2.9347695990424896,4024.9084249084244,1791.9413919413919,1.0,4.39815701139743,227.36796285548462,-4.625954198473282,0.6106870229007634,-1.5419847328244274,-0.29685157421289354,0.2893553223388306,-0.34332833583208394,1541.3919413919414,96.98871523229278,34.53128201147192,
1771002061238.7024,0.5978260869565217,-5.83695652173913,-0.33695652173913043,-1.7642130460801915,-9.297426690604429,-2.9299820466786355,4024.9084249084244,1792.6739926739926,1.0,4.39815701139743,227.36796285548462,-4.641221374045801,1.1450381679389312,-1.4045801526717556,-0.29235382308845576,0.2863568215892054,-0.34182908545727136,1552.3809523809523,96.98585350322942,34.53128201147192,
1771002061258.2344,0.6304347826086957,-5.83695652173913,-0.31521739130434784,-1.7594254937163374,-9.242369838420107,-2.8868940754039496,3999.9999999999995,1749.4505494505493,1.0,4.39815701139743,227.36796285548462,-4.8396946564885495,1.6793893129770991,-1.4198473282442747,-0.29985007496251875,0.2818590704647676,-0.33433283358320837,1524.5421245421244,96.98585350322942,34.53128201147192,
1771002061277.7664,0.6086956521739131,-5.804347826086956,-0.34782608695652173,-1.7618192698982644,-9.261520047875523,-2.9012567324955114,4026.373626373626,1777.2893772893772,1.0,4.39815701139743,227.36796285548462,-4.473282442748092,1.9083969465648853,-1.7099236641221374,-0.29385307346326833,0.272863568215892,-0.34332833583208394,1476.1904761904761,96.9829917769919,34.53128201147192,
1771002061297.2983,0.5978260869565217,-5.826086956521739,-0.33695652173913043,-1.7666068222621185,-9.254338719329743,-2.8988629563135846,4024.9084249084244,1788.278388278388,1.0,4.39815701139743,227.36796285548462,-4.488549618320611,1.4961832061068703,-1.5419847328244274,-0.29235382308845576,0.2863568215892054,-0.34182908545727136,1425.6410256410256,96.98585350322942,34.53128201147192,
1771002061316.8303,0.5760869565217391,-5.815217391304348,-0.30434782608695654,-1.7761819269898265,-9.254338719329743,-2.872531418312388,4023.4432234432234,1786.080586080586,1.0,4.39815701139743,227.36796285548462,-4.396946564885496,0.6106870229007634,-1.5267175572519083,-0.29235382308845576,0.26686656671664166,-0.3328335832083958,1388.278388278388,96.9829917769919,34.53128201147192,
1771002061336.3623,0.5869565217391304,-5.826086956521739,-0.3695652173913043,-1.7737881508078994,-9.268701376421305,-2.9180131657690005,4024.9084249084244,1791.2087912087911,1.0,4.39815701139743,227.36796285548462,-4.458015267175572,-0.6564885496183206,-1.8473282442748091,-0.29235382308845576,0.27586206896551724,-0.34332833583208394,1361.1721611721612,96.98871523229278,34.53128201147192,
1771002061355.8943,0.6086956521739131,-5.83695652173913,-0.3804347826086956,-1.7785757031717535,-9.275882704967085,-2.9443447037701973,4023.4432234432234,1786.8131868131868,1.0,4.39815701139743,227.36796285548462,-4.3206106870229,-1.1450381679389312,-1.9541984732824427,-0.2983508245877061,0.27586206896551724,-0.33883058470764615,1348.7179487179487,96.98871523229278,34.53128201147192,
1771002061375.4265,0.5869565217391304,-5.826086956521739,-0.3695652173913043,-1.7713943746259724,-9.268701376421305,-2.9275882704967087,4023.4432234432234,1785.3479853479853,1.0,4.39815701139743,227.36796285548462,-4.6106870229007635,-0.6717557251908397,-2.030534351145038,-0.29385307346326833,0.2698650674662669,-0.3403298350824588,1348.7179487179487,96.98585350322942,34.53128201147192,
1771002061394.958,0.5978260869565217,-5.815217391304348,-0.358695652173913,-1.7666068222621185,-9.244763614602034,-2.9132256134051464,4023.4432234432234,1784.6153846153845,1.0,4.39815701139743,227.36796285548462,-4.381679389312977,0.2595419847328244,-1.9694656488549618,-0.2908545727136432,0.2653673163418291,-0.34182908545727136,1364.102564102564,96.98871523229278,34.53128201147192,
1771002061414.49,0.5978260869565217,-5.826086956521739,-0.33695652173913043,-1.7833632555356074,-9.266307600239378,-2.8916816277678037,3999.9999999999995,1747.985347985348,1.0,4.39815701139743,227.36796285548462,-4.641221374045801,1.6335877862595418,-0.9923664122137404,-0.29535232383808097,0.26836581709145424,-0.34332833583208394,1391.9413919413919,96.98871523229278,34.53128201147192,
1771002061434.022,0.5869565217391304,-5.826086956521739,-0.33695652173913043,-1.7666068222621185,-9.26391382405745,-2.9084380610412928,3997.069597069597,1730.4029304029302,1.0,4.39815701139743,227.36796285548462,-4.778625954198473,1.618320610687023,-0.9312977099236641,-0.29685157421289354,0.272863568215892,-0.33433283358320837,1423.4432234432234,96.98585350322942,34.53128201147192,
1771002061453.554,0.6086956521739131,-5.83695652173913,-0.33695652173913043,-1.7690005984440453,-9.26391382405745,-2.9084380610412928,4024.9084249084244,1776.5567765567764,1.0,4.39815701139743,227.36796285548462,-4.8396946564885495,0.9312977099236641,-1.5267175572519083,-0.3043478260869565,0.280359820089955,-0.3448275862068965,1441.0256410256409,96.99157696418192,34.53128201147192,
1771002061473.086,0.6195652173913043,-5.826086956521739,-0.34782608695652173,-1.7522441651705565,-9.283064033512867,-2.9323758228605623,4021.978021978022,1780.9523809523807,1.0,4.39815701139743,227.36796285548462,-4.687022900763359,0.564885496183206,-1.7099236641221374,-0.29235382308845576,0.2818590704647676,-0.33883058470764615,1440.2930402930401,96.98871523229278,34.53128201147192,
1771002061492.618,0.6086956521739131,-5.83695652173913,-0.358695652173913,-1.7402752842609215,-9.283064033512867,-2.9108318372232196,3997.069597069597,1739.194139194139,1.0,4.39815701139743,227.36796285548462,-4.427480916030534,0.10687022900763359,-1.9083969465648853,-0.30134932533733133,0.272863568215892,-0.34332833583208394,1429.3040293040292,96.9829917769919,34.53128201147192,
1771002061512.15,0.5978260869565217,-5.83695652173913,-0.358695652173913,-1.7354877318970676,-9.266307600239378,-2.9204069419509273,4024.9084249084244,1778.7545787545787,1.0,4.39815701139743,227.36796285548462,-4.977099236641221,0.061068702290076333,-2.2900763358778624,-0.2893553223388306,0.29385307346326833,-0.35082458770614694,1405.8608058608058,96.98585350322942,34.53128201147192,
1771002061531.682,0.6086956521739131,-5.804347826086956,-0.33695652173913043,-1.7474566128067026,-9.268701376421305,-2.9180131657690005,3997.069597069597,1745.7875457875457,1.0,4.39815701139743,227.36796285548462,-4.961832061068702,-0.13740458015267176,-2.1068702290076335,-0.29685157421289354,0.26686656671664166,-0.34182908545727136,1396.3369963369962,96.9829917769919,34.53128201147192,
1771002061551.214,0.6086956521739131,-5.804347826086956,-0.3695652173913043,-1.7570317175344106,-9.268701376421305,-2.9275882704967087,4024.9084249084244,1780.2197802197802,1.0,4.39815701139743,227.36796285548462,-4.824427480916031,-0.32061068702290074,-2.16793893129771,-0.29235382308845576,0.2818590704647676,-0.3538230884557721,1380.2197802197802,96.98585350322942,34.53128201147192,
1771002061570.7458,0.5978260869565217,-5.815217391304348,-0.3695652173913043,-1.7713943746259724,-9.251944943147816,-2.9347695990424896,3999.9999999999995,1746.5201465201465,1.0,4.39815701139743,227.36796285548462,-4.870229007633587,-0.015267175572519083,-1.7557251908396947,-0.30134932533733133,0.2608695652173913,-0.335832083958021,1359.7069597069597,96.98871523229278,34.53128201147192,
1771002061590.2778,0.5978260869565217,-5.83695652173913,-0.3804347826086956,-1.7761819269898265,-9.26391382405745,-2.9251944943147814,4024.9084249084244,1780.2197802197802,1.0,4.39815701139743,227.36796285548462,-4.854961832061068,-0.22900763358778625,-1.5267175572519083,-0.2983508245877061,0.2788605697151424,-0.34632683658170915,1347.2527472527472,96.98585350322942,34.53128201147192,
1771002061609.8098,0.5978260869565217,-5.83695652173913,-0.34782608695652173,-1.7594254937163374,-9.283064033512867,-2.9347695990424896,4024.9084249084244,1789.7435897435896,1.0,4.39815701139743,227.36796285548462,-4.961832061068702,0.3969465648854962,-2.1374045801526718,-0.2983508245877061,0.2788605697151424,-0.3373313343328336,1347.985347985348,96.98585350322942,34.53128201147192,
1771002061629.3418,0.5978260869565217,-5.826086956521739,-0.3913043478260869,-1.7881508078994615,-9.283064033512867,-2.9419509275882705,4021.978021978022,1784.6153846153845,1.0,4.39815701139743,227.36796285548462,-5.129770992366412,0.7480916030534351,-1.9389312977099236,-0.2983508245877061,0.2773613193403298,-0.34632683658170915,1352.3809523809523,96.99157696418192,34.53128201147192,
1771002061648.8738,0.5869565217391304,-5.815217391304348,-0.358695652173913,-1.7737881508078994,-9.259126271693596,-2.9491322561340514,3998.5347985347985,1747.2527472527472,1.0,4.393051779811362,227.63219058686812,-5.114503816793893,0.3511450381679389,-1.9541984732824427,-0.29385307346326833,0.2833583208395802,-0.3373313343328336,1358.974358974359,96.9829917769919,34.53128201147192,
1771002061668.4058,0.5978260869565217,-5.815217391304348,-0.3913043478260869,-1.7570317175344106,-9.244763614602034,-2.9443447037701973,4026.373626373626,1775.8241758241757,1.0,4.39815701139743,227.36796285548462,-5.221374045801526,0.07633587786259542,-1.9694656488549618,-0.29685157421289354,0.27136431784107945,-0.34182908545727136,1369.9633699633698,96.98871523229278,34.53128201147192,
1771002061687.9375,0.6086956521739131,-5.804347826086956,-0.3695652173913043,-1.7690005984440453,-9.249551166965889,-2.9419509275882705,4024.9084249084244,1788.278388278388,1.0,4.39815701139743,227.36796285548462,-4.8396946564885495,-0.6412213740458015,-2.045801526717557,-0.29535232383808097,0.2653673163418291,-0.34182908545727136,1380.2197802197802,96.98585350322942,34.53128201147192,
1771002061707.4695,0.5869565217391304,-5.815217391304348,-0.3804347826086956,-1.7690005984440453,-9.244763614602034,-2.9587073608617596,4026.373626373626,1787.5457875457873,1.0,4.393051779811362,227.63219058686812,-4.961832061068702,-0.33587786259541985,-2.0763358778625953,-0.29535232383808097,0.27136431784107945,-0.33433283358320837,1389.0109890109889,96.98585350322942,34.53128201147192,
1771002061727.0017,0.5978260869565217,-5.804347826086956,-0.3695652173913043,-1.7737881508078994,-9.239976062238181,-2.9299820466786355,4001.465201465201,1755.311355311355,1.0,4.39815701139743,227.36796285548462,-4.778625954198473,0.04580152671755725,-2.1526717557251906,-0.29385307346326833,0.2593703148425787,-0.35082458770614694,1384.6153846153845,96.9829917769919,34.53128201147192,
1771002061746.5337,0.5760869565217391,-5.83695652173913,-0.34782608695652173,-1.7713943746259724,-9.299820466786356,-2.9156193895870737,4026.373626373626,1778.021978021978,1.0,4.39815701139743,227.36796285548462,-4.824427480916031,0.4580152671755725,-1.9236641221374045,-0.29235382308845576,0.272863568215892,-0.3493253373313343,1383.8827838827838,96.98871523229278,34.53128201147192,
1771002061766.0657,0.5543478260869565,-5.83695652173913,-0.358695652173913,-1.8001196888090962,-9.285457809694794,-2.9132256134051464,4024.9084249084244,1789.0109890109889,1.0,4.393051779811362,227.63219058686812,-4.549618320610687,0.04580152671755725,-1.7862595419847327,-0.29535232383808097,0.2788605697151424,-0.33883058470764615,1379.4871794871794,96.9829917769919,34.53128201147192,
1771002061785.5977,0.5978260869565217,-5.804347826086956,-0.41304347826086957,-1.7713943746259724,-9.285457809694794,-2.9682824655894673,4020.5128205128203,1778.7545787545787,1.0,4.393051779811362,227.63219058686812,-4.427480916030534,0.4427480916030534,-2.3206106870229006,-0.29235382308845576,0.2653673163418291,-0.335832083958021,1364.102564102564,96.99157696418192,34.53128201147192,
1771002061805.1294,0.6086956521739131,-5.782608695652174,-0.3804347826086956,-1.7809694793536803,-9.211250748055056,-2.9539198084979055,3997.069597069597,1739.194139194139,1.0,4.393051779811362,227.63219058686812,-4.229007633587786,0.916030534351145,-1.5877862595419847,-0.29685157421289354,0.280359820089955,-0.34632683658170915,1352.3809523809523,96.98585350322942,34.53128201147192,
1771002061824.6614,0.5978260869565217,-5.760869565217392,-0.3913043478260869,-1.7642130460801915,-9.206463195691203,-2.9658886894075405,4023.4432234432234,1772.161172161172,1.0,4.393051779811362,227.63219058686812,-4.564885496183206,0.6564885496183206,-1.450381679389313,-0.29535232383808097,0.2833583208395802,-0.3538230884557721,1345.7875457875457,96.9829917769919,34.53128201147192,
1771002061844.1934,0.5978260869565217,-5.771739130434782,-0.3913043478260869,-1.7690005984440453,-9.218432076600838,-2.9491322561340514,4024.9084249084244,1787.5457875457873,1.0,4.393051779811362,227.63219058686812,-4.488549618320611,0.3053435114503817,-1.2519083969465647,-0.29685157421289354,0.26686656671664166,-0.34332833583208394,1342.8571428571427,96.99157696418192,34.53128201147192,
1771002061863.725,0.5978260869565217,-5.793478260869565,-0.40217391304347827,-1.7666068222621185,-9.259126271693596,-2.9299820466786355,4024.9084249084244,1791.9413919413919,1.0,4.393051779811362,227.63219058686812,-4.122137404580153,-1.2213740458015268,-1.4961832061068703,-0.29685157421289354,0.2608695652173913,-0.335832083958021,1336.263736263736,96.98871523229278,34.53128201147192,
1771002061883.257,0.5978260869565217,-5.826086956521739,-0.41304347826086957,-1.7690005984440453,-9.28785158587672,-2.975463794135248,3999.9999999999995,1750.18315018315,1.0,4.39815701139743,227.36796285548462,-3.633587786259542,-1.9083969465648853,-2.1068702290076335,-0.3058470764617691,0.272863568215892,-0.3493253373313343,1333.3333333333333,96.98871523229278,34.53128201147192,
1771002061902.7893,0.5869565217391304,-5.826086956521739,-0.3913043478260869,-1.7737881508078994,-9.28067025733094,-2.975463794135248,3997.069597069597,1731.135531135531,1.0,4.393051779811362,227.63219058686812,-3.9083969465648853,-0.9618320610687022,-2.0610687022900764,-0.29235382308845576,0.2818590704647676,-0.3583208395802099,1346.5201465201465,96.9829917769919,34.53128201147192,
1771002061922.3213,0.5652173913043478,-5.793478260869565,-0.43478260869565216,-1.7833632555356074,-9.242369838420107,-3.030520646319569,4024.9084249084244,1776.5567765567764,1.0,4.393051779811362,227.63219058686812,-4.183206106870228,0.6106870229007634,-1.9083969465648853,-0.29385307346326833,0.27136431784107945,-0.34332833583208394,1383.8827838827838,96.98585350322942,34.53128201147192,
1771002061941.8533,0.5869565217391304,-5.782608695652174,-0.43478260869565216,-1.7761819269898265,-9.228007181328545,-2.975463794135248,4019.047619047619,1779.4871794871794,1.0,4.393051779811362,227.63219058686812,-4.580152671755725,1.984732824427481,-1.6030534351145038,-0.29385307346326833,0.27136431784107945,-0.34332833583208394,1445.4212454212454,96.98013005358018,34.53128201147192,
1771002061961.3853,0.5652173913043478,-5.826086956521739,-0.3913043478260869,-1.7929383602633153,-9.259126271693596,-2.9611011370436864,4024.9084249084244,1789.7435897435896,1.0,4.39815701139743,227.36796285548462,-4.458015267175572,2.213740458015267,-1.129770992366412,-0.2893553223388306,0.2833583208395802,-0.33883058470764615,1494.5054945054944,96.98013005358018,34.53128201147192,
1771002061980.9172,0.5869565217391304,-5.83695652173913,-0.40217391304347827,-1.7666068222621185,-9.283064033512867,-2.9587073608617596,4023.4432234432234,1786.8131868131868,1.0,4.39815701139743,227.36796285548462,-4.595419847328244,2.8854961832061066,-0.916030534351145,-0.29235382308845576,0.2653673163418291,-0.34182908545727136,1521.6117216117216,96.99157696418192,34.53128201147192,
1771002062000.4492,0.5869565217391304,-5.793478260869565,-0.3804347826086956,-1.7666068222621185,-9.271095152603232,-2.9587073608617596,4021.978021978022,1783.8827838827838,1.0,4.393051779811362,227.63219058686812,-4.67175572519084,2.4580152671755724,-0.8702290076335878,-0.3028485757121439,0.29685157421289354,-0.3538230884557721,1515.7509157509157,96.9944386988969,34.53128201147192,
1771002062019.9812,0.6086956521739131,-5.804347826086956,-0.3695652173913043,-1.7737881508078994,-9.2327947336924,-2.9299820466786355,4023.4432234432234,1784.6153846153845,1.0,4.393051779811362,227.63219058686812,-4.717557251908397,1.7709923664122136,-1.282442748091603,-0.29535232383808097,0.2623688155922039,-0.34632683658170915,1490.8424908424906,96.9829917769919,34.53128201147192,
1771002062039.5132,0.6086956521739131,-5.815217391304348,-0.40217391304347827,-1.7594254937163374,-9.254338719329743,-2.9467384799521246,3999.9999999999995,1747.985347985348,1.0,4.393051779811362,227.63219058686812,-4.305343511450381,1.1908396946564885,-1.450381679389313,-0.29385307346326833,0.2638680659670165,-0.34332833583208394,1464.4688644688645,96.9829917769919,34.53128201147192,
1771002062059.0452,0.6195652173913043,-5.804347826086956,-0.40217391304347827,-1.7737881508078994,-9.239976062238181,-2.970676241771394,4024.9084249084244,1780.9523809523807,1.0,4.393051779811362,227.63219058686812,-4.702290076335878,0.183206106870229,-1.5419847328244274,-0.29985007496251875,0.2623688155922039,-0.3373313343328336,1428.5714285714284,96.98585350322942,34.53128201147192,
1771002062078.5771,0.6195652173913043,-5.815217391304348,-0.41304347826086957,-1.7618192698982644,-9.237582286056254,-2.9443447037701973,4024.9084249084244,1789.7435897435896,1.0,4.393051779811362,227.63219058686812,-4.305343511450381,-0.42748091603053434,-2.2442748091603053,-0.3043478260869565,0.280359820089955,-0.3403298350824588,1379.4871794871794,96.98871523229278,34.53128201147192,
1771002062098.1091,0.5869565217391304,-5.826086956521739,-0.41304347826086957,-1.7474566128067026,-9.244763614602034,-2.9802513464991023,4019.047619047619,1783.150183150183,1.0,4.393051779811362,227.63219058686812,-4.595419847328244,-0.8702290076335878,-2.0,-0.29685157421289354,0.27136431784107945,-0.335832083958021,1323.8095238095236,96.98585350322942,34.53128201147192,
1771002062117.641,0.6195652173913043,-5.782608695652174,-0.40217391304347827,-1.7761819269898265,-9.25673249551167,-3.001795332136445,4024.9084249084244,1790.4761904761904,1.0,4.393051779811362,227.63219058686812,-4.519083969465648,0.4427480916030534,-2.351145038167939,-0.2893553223388306,0.280359820089955,-0.3403298350824588,1296.7032967032967,96.98013005358018,34.53128201147192,
1771002062137.173,0.5978260869565217,-5.771739130434782,-0.3913043478260869,-1.7618192698982644,-9.244763614602034,-2.9802513464991023,4024.9084249084244,1792.6739926739926,1.0,4.393051779811362,227.63219058686812,-4.717557251908397,2.015267175572519,-1.6793893129770991,-0.3028485757121439,0.2818590704647676,-0.3328335832083958,1304.7619047619046,96.98871523229278,34.53128201147192,
1771002062156.705,0.5543478260869565,-5.793478260869565,-0.3913043478260869,-1.7953321364452424,-9.22561340514662,-2.963494913225613,4024.9084249084244,1793.4065934065932,1.0,4.393051779811362,227.63219058686812,-4.67175572519084,1.7862595419847327,-1.450381679389313,-0.29985007496251875,0.26836581709145424,-0.3448275862068965,1317.216117216117,96.9944386988969,34.53128201147192,
1771002062176.237,0.5978260869565217,-5.83695652173913,-0.41304347826086957,-1.8001196888090962,-9.247157390783961,-2.970676241771394,4021.978021978022,1786.080586080586,1.0,4.393051779811362,227.63219058686812,-4.778625954198473,0.9923664122137404,-0.8702290076335878,-0.2983508245877061,0.27586206896551724,-0.33883058470764615,1343.5897435897434,96.98871523229278,34.53128201147192,
1771002062195.769,0.5869565217391304,-5.815217391304348,-0.42391304347826086,-1.7737881508078994,-9.261520047875523,-2.9730700179533214,4001.465201465201,1755.311355311355,1.0,4.393051779811362,227.63219058686812,-4.900763358778626,0.6412213740458015,-1.2519083969465647,-0.2983508245877061,0.2578710644677661,-0.3313343328335832,1372.161172161172,96.99029872208945,34.54133239938528,
1771002062215.3008,0.6086956521739131,-5.815217391304348,-0.42391304347826086,-1.7570317175344106,-9.235188509874327,-3.0041891083183723,4024.9084249084244,1783.150183150183,1.0,4.393051779811362,227.63219058686812,-4.748091603053435,0.24427480916030533,-1.8778625954198473,-0.2983508245877061,0.2578710644677661,-0.35082458770614694,1389.7435897435896,96.99029872208945,34.54133239938528,
1771002062234.8328,0.6304347826086957,-5.782608695652174,-0.42391304347826086,-1.7354877318970676,-9.242369838420107,-2.999401555954518,4024.9084249084244,1790.4761904761904,1.0,4.393051779811362,227.63219058686812,-4.778625954198473,0.21374045801526717,-1.7251908396946565,-0.2893553223388306,0.26686656671664166,-0.3313343328335832,1394.8717948717947,96.99029872208945,34.54133239938528,
1771002062254.3647,0.6413043478260869,-5.793478260869565,-0.3913043478260869,-1.7187312986235788,-9.220825852782765,-2.970676241771394,4020.5128205128203,1778.7545787545787,1.0,4.393051779811362,227.63219058686812,-4.717557251908397,0.1984732824427481,-1.8778625954198473,-0.29535232383808097,0.2608695652173913,-0.335832083958021,1382.4175824175823,96.98743694671376,34.54133239938528,
1771002062273.8967,0.6086956521739131,-5.793478260869565,-0.3804347826086956,-1.7474566128067026,-9.230400957510472,-2.9802513464991023,3997.069597069597,1739.194139194139,1.0,4.393051779811362,227.63219058686812,-4.641221374045801,0.061068702290076333,-2.1068702290076335,-0.2863568215892054,0.27136431784107945,-0.34782608695652173,1358.974358974359,96.98457517416398,34.54133239938528,
1771002062293.4287,0.5869565217391304,-5.83695652173913,-0.41304347826086957,-1.7881508078994615,-9.244763614602034,-2.9611011370436864,4024.9084249084244,1778.7545787545787,1.0,4.393051779811362,227.63219058686812,-4.458015267175572,-0.5343511450381679,-1.9083969465648853,-0.3043478260869565,0.27586206896551724,-0.3448275862068965,1342.1245421245421,96.99029872208945,34.54133239938528,
1771002062312.9607,0.5652173913043478,-5.826086956521739,-0.40217391304347827,-1.7737881508078994,-9.266307600239378,-2.994614003590664,4024.9084249084244,1789.0109890109889,1.0,4.393051779811362,227.63219058686812,-4.6106870229007635,-0.8854961832061068,-1.8778625954198473,-0.30134932533733133,0.2653673163418291,-0.34182908545727136,1333.3333333333333,96.99602228131853,34.54133239938528,
1771002062332.493,0.6086956521739131,-5.804347826086956,-0.41304347826086957,-1.8001196888090962,-9.261520047875523,-2.9970077797725914,4024.9084249084244,1792.6739926739926,1.0,4.387946548225294,227.89703315881326,-4.183206106870228,-0.5190839694656488,-1.7099236641221374,-0.2983508245877061,0.26686656671664166,-0.34782608695652173,1334.7985347985348,96.98457517416398,34.54133239938528,
1771002062352.025,0.5978260869565217,-5.793478260869565,-0.44565217391304346,-1.7785757031717535,-9.237582286056254,-3.020945541591861,3999.9999999999995,1750.18315018315,1.0,4.393051779811362,227.63219058686812,-4.366412213740458,0.549618320610687,-1.6946564885496183,-0.29985007496251875,0.26686656671664166,-0.34332833583208394,1354.5787545787546,96.98457517416398,34.54133239938528,
1771002062371.5566,0.5869565217391304,-5.782608695652174,-0.43478260869565216,-1.7618192698982644,-9.237582286056254,-3.001795332136445,3997.069597069597,1731.135531135531,1.0,4.393051779811362,227.63219058686812,-4.427480916030534,0.48854961832061067,-1.7862595419847327,-0.29535232383808097,0.2608695652173913,-0.34782608695652173,1369.230769230769,96.99029872208945,34.54133239938528,
1771002062391.0886,0.6304347826086957,-5.782608695652174,-0.43478260869565216,-1.7594254937163374,-9.21603830041891,-3.006582884500299,4024.9084249084244,1775.8241758241757,1.0,4.393051779811362,227.63219058686812,-4.595419847328244,0.549618320610687,-1.8778625954198473,-0.29985007496251875,0.2833583208395802,-0.3403298350824588,1354.5787545787546,96.99316050029104,34.54133239938528,
1771002062410.6206,0.5760869565217391,-5.793478260869565,-0.44565217391304346,-1.7618192698982644,-9.242369838420107,-3.0089766606822264,4019.047619047619,1778.7545787545787,1.0,4.393051779811362,227.63219058686812,-4.366412213740458,0.0916030534351145,-1.6793893129770991,-0.2983508245877061,0.2638680659670165,-0.3313343328335832,1331.135531135531,96.98743694671376,34.54133239938528,
1771002062430.1526,0.5869565217391304,-5.815217391304348,-0.45652173913043476,-1.8049072411729503,-9.239976062238181,-3.0089766606822264,4024.9084249084244,1789.0109890109889,1.0,4.393051779811362,227.63219058686812,-4.763358778625954,-0.6259541984732824,-2.015267175572519,-0.3043478260869565,0.27586206896551724,-0.33433283358320837,1319.4139194139193,96.98457517416398,34.54133239938528,
1771002062449.6846,0.5760869565217391,-5.815217391304348,-0.44565217391304346,-1.7977259126271694,-9.254338719329743,-3.006582884500299,4024.9084249084244,1791.9413919413919,1.0,4.393051779811362,227.63219058686812,-4.442748091603053,-1.5267175572519083,-2.381679389312977,-0.30134932533733133,0.2863568215892054,-0.3493253373313343,1322.3443223443223,96.9817134044401,34.54133239938528,
1771002062469.2166,0.5760869565217391,-5.782608695652174,-0.41304347826086957,-1.7522441651705565,-9.239976062238181,-3.006582884500299,4023.4432234432234,1786.8131868131868,1.0,4.387946548225294,227.89703315881326,-4.305343511450381,-0.7938931297709924,-2.16793893129771,-0.29535232383808097,0.27586206896551724,-0.335832083958021,1330.4029304029302,96.9817134044401,34.54133239938528,
1771002062488.7483,0.5978260869565217,-5.793478260869565,-0.40217391304347827,-1.7402752842609215,-9.223219628964692,-2.982645122681029,4021.978021978022,1784.6153846153845,1.0,4.393051779811362,227.63219058686812,-4.244274809160305,0.4427480916030534,-2.015267175572519,-0.29985007496251875,0.2773613193403298,-0.3373313343328336,1352.3809523809523,96.98743694671376,34.54133239938528,
1771002062508.2805,0.5978260869565217,-5.793478260869565,-0.41304347826086957,-1.7618192698982644,-9.261520047875523,-2.975463794135248,3999.9999999999995,1748.7179487179485,1.0,4.393051779811362,227.63219058686812,-4.549618320610687,0.916030534351145,-1.4961832061068703,-0.30134932533733133,0.2593703148425787,-0.34182908545727136,1366.3003663003662,96.98743694671376,34.54133239938528,
1771002062527.8125,0.5869565217391304,-5.804347826086956,-0.44565217391304346,-1.7618192698982644,-9.254338719329743,-2.963494913225613,3995.6043956043954,1728.2051282051282,1.0,4.393051779811362,227.63219058686812,-4.305343511450381,1.3740458015267174,-1.816793893129771,-0.2863568215892054,0.2908545727136432,-0.3538230884557721,1361.1721611721612,96.98457517416398,34.54133239938528,
1771002062547.3445,0.5978260869565217,-5.804347826086956,-0.41304347826086957,-1.7522441651705565,-9.247157390783961,-3.001795332136445,4024.9084249084244,1775.091575091575,1.0,4.393051779811362,227.63219058686812,-4.106870229007633,1.4809160305343512,-1.8778625954198473,-0.29235382308845576,0.2833583208395802,-0.3448275862068965,1358.974358974359,96.98743694671376,34.54133239938528,
1771002062566.8765,0.6304347826086957,-5.815217391304348,-0.43478260869565216,-1.7690005984440453,-9.247157390783961,-2.9778575703171755,4016.117216117216,1771.4285714285713,1.0,4.393051779811362,227.63219058686812,-4.076335877862595,1.3435114503816794,-1.4809160305343512,-0.29385307346326833,0.26686656671664166,-0.33883058470764615,1341.3919413919414,96.9817134044401,34.54133239938528,
1771002062586.4084,0.6195652173913043,-5.760869565217392,-0.43478260869565216,-1.7378815080789947,-9.21603830041891,-3.018551765409934,4023.4432234432234,1780.9523809523807,1.0,4.393051779811362,227.63219058686812,-3.9847328244274807,0.549618320610687,-1.618320610687023,-0.29685157421289354,0.2818590704647676,-0.3403298350824588,1330.4029304029302,96.98457517416398,34.54133239938528,
1771002062605.9404,0.6304347826086957,-5.793478260869565,-0.42391304347826086,-1.7474566128067026,-9.220825852782765,-2.9802513464991023,4023.4432234432234,1783.150183150183,1.0,4.393051779811362,227.63219058686812,-3.9236641221374042,-0.5343511450381679,-2.1374045801526718,-0.2908545727136432,0.2788605697151424,-0.34182908545727136,1323.076923076923,96.99029872208945,34.54133239938528,
1771002062625.4724,0.6413043478260869,-5.793478260869565,-0.44565217391304346,-1.7187312986235788,-9.20885697187313,-2.9850388988629564,4023.4432234432234,1783.8827838827838,1.0,4.387946548225294,227.89703315881326,-3.6030534351145036,-1.9083969465648853,-2.564885496183206,-0.2983508245877061,0.26836581709145424,-0.34332833583208394,1315.7509157509157,96.98743694671376,34.54133239938528,
1771002062645.0042,0.5869565217391304,-5.815217391304348,-0.43478260869565216,-1.7450628366247756,-9.249551166965889,-3.011370436864153,4023.4432234432234,1784.6153846153845,1.0,4.387946548225294,227.89703315881326,-3.66412213740458,-2.396946564885496,-3.1755725190839694,-0.30134932533733133,0.272863568215892,-0.34182908545727136,1326.007326007326,96.98743694671376,34.54133239938528,
1771002062664.536,0.5652173913043478,-5.793478260869565,-0.42391304347826086,-1.7833632555356074,-9.266307600239378,-3.0161579892280073,3999.9999999999995,1747.985347985348,1.0,4.387946548225294,227.89703315881326,-3.6946564885496183,-1.282442748091603,-3.4045801526717554,-0.3043478260869565,0.2773613193403298,-0.34182908545727136,1358.974358974359,96.98743694671376,34.54133239938528,
1771002062684.068,0.5652173913043478,-5.804347826086956,-0.43478260869565216,-1.7905445840813883,-9.2327947336924,-3.023339317773788,4024.9084249084244,1780.9523809523807,1.0,4.387946548225294,227.89703315881326,-3.9541984732824424,-0.21374045801526717,-2.854961832061069,-0.29385307346326833,0.29535232383808097,-0.3448275862068965,1408.7912087912086,96.97885163754214,34.54133239938528,
1771002062703.6,0.5652173913043478,-5.793478260869565,-0.43478260869565216,-1.8192698982645121,-9.244763614602034,-3.0281268701376423,4023.4432234432234,1783.8827838827838,1.0,4.387946548225294,227.89703315881326,-4.366412213740458,0.15267175572519084,-2.1221374045801524,-0.30134932533733133,0.26836581709145424,-0.33883058470764615,1457.8754578754579,96.98743694671376,34.54133239938528,
1771002062723.132,0.5978260869565217,-5.815217391304348,-0.45652173913043476,-1.7761819269898265,-9.230400957510472,-3.020945541591861,4016.117216117216,1774.3589743589741,1.0,4.387946548225294,227.89703315881326,-4.458015267175572,0.41221374045801523,-1.9389312977099236,-0.2908545727136432,0.28785607196401797,-0.3493253373313343,1486.4468864468863,96.98743694671376,34.54133239938528,
1771002062742.664,0.6521739130434783,-5.793478260869565,-0.43478260869565216,-1.7426690604428485,-9.2327947336924,-3.006582884500299,3997.069597069597,1737.7289377289376,1.0,4.387946548225294,227.89703315881326,-4.305343511450381,0.8854961832061068,-1.7099236641221374,-0.29535232383808097,0.2833583208395802,-0.335832083958021,1482.7838827838827,96.99029872208945,34.54133239938528,
1771002062762.196,0.6413043478260869,-5.782608695652174,-0.3804347826086956,-1.7307001795332135,-9.218432076600838,-2.9922202274087373,4024.9084249084244,1778.021978021978,1.0,4.387946548225294,227.89703315881326,-4.427480916030534,0.47328244274809156,-2.015267175572519,-0.29535232383808097,0.272863568215892,-0.335832083958021,1462.2710622710622,96.97885163754214,34.54133239938528,
1771002062781.728,0.6304347826086957,-5.793478260869565,-0.43478260869565216,-1.7307001795332135,-9.2327947336924,-3.020945541591861,4023.4432234432234,1782.4175824175823,1.0,4.387946548225294,227.89703315881326,-4.213740458015267,0.1984732824427481,-1.9083969465648853,-0.29985007496251875,0.272863568215892,-0.3373313343328336,1413.1868131868132,96.98743694671376,34.54133239938528,
1771002062801.26,0.5869565217391304,-5.793478260869565,-0.43478260869565216,-1.7666068222621185,-9.239976062238181,-2.999401555954518,4026.373626373626,1786.080586080586,1.0,4.393051779811362,227.63219058686812,-4.259541984732825,0.2748091603053435,-2.381679389312977,-0.29985007496251875,0.272863568215892,-0.3403298350824588,1353.113553113553,96.98457517416398,34.54133239938528,
1771002062820.792,0.6086956521739131,-5.804347826086956,-0.42391304347826086,-1.7666068222621185,-9.230400957510472,-3.018551765409934,3999.9999999999995,1748.7179487179485,1.0,4.387946548225294,227.89703315881326,-4.427480916030534,-1.3893129770992365,-2.854961832061069,-0.29535232383808097,0.29235382308845576,-0.34782608695652173,1308.4249084249084,96.98457517416398,34.54133239938528,
1771002062840.324,0.5978260869565217,-5.804347826086956,-0.43478260869565216,-1.7594254937163374,-9.235188509874327,-3.030520646319569,4024.9084249084244,1780.9523809523807,1.0,4.387946548225294,227.89703315881326,-4.549618320610687,-1.9083969465648853,-3.2519083969465647,-0.28785607196401797,0.2893553223388306,-0.34632683658170915,1284.9816849816848,96.98457517416398,34.54133239938528,
1771002062859.856,0.5978260869565217,-5.782608695652174,-0.44565217391304346,-1.7785757031717535,-9.239976062238181,-3.042489527229204,4024.9084249084244,1789.7435897435896,1.0,4.387946548225294,227.89703315881326,-4.137404580152672,-1.9389312977099236,-2.931297709923664,-0.3043478260869565,0.29235382308845576,-0.34782608695652173,1266.6666666666665,96.9817134044401,34.54133239938528,
1771002062879.388,0.5760869565217391,-5.75,-0.46739130434782605,-1.7737881508078994,-9.223219628964692,-3.066427289048474,4017.5824175824173,1777.2893772893772,1.0,4.387946548225294,227.89703315881326,-4.0,-0.7022900763358778,-2.717557251908397,-0.2983508245877061,0.28785607196401797,-0.34332833583208394,1252.7472527472526,96.98457517416398,34.54133239938528,
1771002062898.92,0.6086956521739131,-5.771739130434782,-0.4891304347826087,-1.7761819269898265,-9.21603830041891,-3.056852184320766,4026.373626373626,1784.6153846153845,1.0,4.387946548225294,227.89703315881326,-4.442748091603053,0.24427480916030533,-2.7938931297709924,-0.29685157421289354,0.272863568215892,-0.33433283358320837,1255.6776556776556,96.9817134044401,34.54133239938528,
1771002062918.452,0.6195652173913043,-5.793478260869565,-0.46739130434782605,-1.7785757031717535,-9.21603830041891,-3.047277079593058,4026.373626373626,1786.080586080586,1.0,4.387946548225294,227.89703315881326,-5.007633587786259,1.5267175572519083,-1.8931297709923662,-0.29385307346326833,0.26836581709145424,-0.34182908545727136,1290.10989010989,96.98457517416398,34.54133239938528,
1771002062937.984,0.6521739130434783,-5.793478260869565,-0.44565217391304346,-1.7163375224416517,-9.247157390783961,-3.025733093955715,4011.721611721611,1767.032967032967,1.0,4.387946548225294,227.89703315881326,-5.236641221374046,2.5801526717557253,-1.4045801526717556,-0.29235382308845576,0.27586206896551724,-0.3538230884557721,1328.2051282051282,96.99029872208945,34.54133239938528,
1771002062957.516,0.6630434782608695,-5.826086956521739,-0.41304347826086957,-1.6947935368043088,-9.25673249551167,-3.0041891083183723,4026.373626373626,1781.6849816849815,1.0,4.387946548225294,227.89703315881326,-5.145038167938931,3.3893129770992365,-0.9618320610687022,-0.28785607196401797,0.2773613193403298,-0.3373313343328336,1357.5091575091574,96.99029872208945,34.54133239938528,
1771002062977.048,0.6739130434782609,-5.815217391304348,-0.43478260869565216,-1.67803710353082,-9.268701376421305,-3.006582884500299,4001.465201465201,1753.8461538461538,1.0,4.387946548225294,227.89703315881326,-5.0534351145038165,3.5267175572519083,-1.2671755725190839,-0.30134932533733133,0.2698650674662669,-0.3403298350824588,1369.9633699633698,96.99029872208945,34.54133239938528,
1771002062996.5798,0.6956521739130435,-5.793478260869565,-0.3695652173913043,-1.6995810891681626,-9.266307600239378,-2.9611011370436864,3998.5347985347985,1738.4615384615383,1.0,4.387946548225294,227.89703315881326,-4.977099236641221,1.984732824427481,-1.816793893129771,-0.2983508245877061,0.2833583208395802,-0.34332833583208394,1356.0439560439559,96.98743694671376,34.54133239938528,
1771002063016.1118,0.7065217391304348,-5.83695652173913,-0.3695652173913043,-1.6636744464392579,-9.268701376421305,-2.970676241771394,4024.9084249084244,1778.021978021978,1.0,4.387946548225294,227.89703315881326,-5.312977099236641,0.8549618320610687,-2.3053435114503817,-0.3058470764617691,0.26686656671664166,-0.3523238380809595,1343.5897435897434,96.97885163754214,34.54133239938528,
