Shimmer_A679_TimestampSync_Unix_CAL,Shimmer_A679_Accel_LN_X_CAL,Shimmer_A679_Accel_LN_Y_CAL,Shimmer_A679_Accel_LN_Z_CAL,Shimmer_A679_Accel_WR_X_CAL,Shimmer_A679_Accel_WR_Y_CAL,Shimmer_A679_Accel_WR_Z_CAL,Shimmer_A679_Battery_CAL,Shimmer_A679_Ext_Exp_A15_CAL,Shimmer_A679_GSR_Range_CAL,Shimmer_A679_GSR_Skin_Conductance_CAL,Shimmer_A679_GSR_Skin_Resistance_CAL,Shimmer_A679_Gyro_X_CAL,Shimmer_A679_Gyro_Y_CAL,Shimmer_A679_Gyro_Z_CAL,Shimmer_A679_Mag_X_CAL,Shimmer_A679_Mag_Y_CAL,Shimmer_A679_Mag_Z_CAL,Shimmer_A679_PPG_A13_CAL,Shimmer_A679_Pressure_BMP280_CAL,Shimmer_A679_Temperature_BMP280_CAL,Unnamed: 21
1771001780017.3845,0.5434782608695652,-5.663043478260869,-0.5760869565217391,-1.8096947935368042,-9.067624177139438,-3.080789946140036,4029.304029304029,1795.6043956043954,1.0,4.469630253602379,223.73215305539694,-0.564885496183206,9.206106870229007,-2.900763358778626,-0.29535232383808097,0.29235382308845576,-0.3298350824587706,1685.7142857142856,96.97954552523105,34.1644436493516,
1771001780036.9165,0.6739130434782609,-5.771739130434782,-0.5434782608695652,-1.7115499700777976,-9.187312986235787,-3.229204069419509,4014.6520146520143,1771.4285714285713,1.0,4.459419790430243,224.2444190040069,-1.3129770992366412,7.862595419847328,-3.9389312977099236,-0.29235382308845576,0.2638680659670165,-0.32533733133433285,1622.7106227106226,96.9852657072276,34.1644436493516,
1771001780056.4482,0.6630434782608695,-5.771739130434782,-0.45652173913043476,-1.5918611609814481,-9.204069419509276,-3.1526032315978454,4029.304029304029,1789.7435897435896,1.0,4.4492093272581075,224.75903614457832,-3.32824427480916,6.793893129770992,-5.755725190839694,-0.28785607196401797,0.26686656671664166,-0.3193403298350824,1501.098901098901,96.97668543846665,34.1644436493516,
1771001780075.9802,0.4782608695652174,-5.782608695652174,-0.6304347826086957,-1.8120885697187312,-9.17773788150808,-3.1334530221424295,4002.9304029304026,1751.6483516483515,1.0,4.438998864085971,225.27602070155262,-4.564885496183206,9.98473282442748,-3.6488549618320607,-0.29385307346326833,0.280359820089955,-0.3298350824587706,1383.8827838827838,96.97954552523105,34.1644436493516,
1771001780095.5122,0.6413043478260869,-5.760869565217392,-0.5543478260869565,-1.7929383602633153,-9.213644524236983,-3.214841412327947,4029.304029304029,1784.6153846153845,1.0,4.418577937741701,226.31715771230503,-4.030534351145038,7.404580152671755,-6.152671755725191,-0.2983508245877061,0.26686656671664166,-0.3238380809595202,1364.102564102564,96.97668543846665,34.1644436493516,
1771001780115.0442,0.5217391304347826,-5.739130434782608,-0.6521739130434783,-1.7330939557151406,-9.146618791143029,-3.238779174147217,4027.8388278388275,1792.6739926739926,1.0,4.387946548225294,227.89703315881326,-4.8396946564885495,9.893129770992367,-4.076335877862595,-0.29685157421289354,0.27436281859070466,-0.335832083958021,1410.2564102564102,96.97954552523105,34.1644436493516,
1771001780134.5762,0.4891304347826087,-5.771739130434782,-0.5869565217391304,-1.893476959904249,-9.165769000598443,-3.202872531418312,4020.5128205128203,1780.2197802197802,1.0,4.341999463950684,230.30864197530863,-5.66412213740458,5.893129770992366,-3.6030534351145036,-0.29535232383808097,0.272863568215892,-0.32083958020989506,1414.6520146520145,96.97096527340565,34.1644436493516,
1771001780154.1082,0.5978260869565217,-5.717391304347826,-0.6086956521739131,-1.7809694793536803,-9.141831238779174,-3.1454219030520645,4029.304029304029,1791.9413919413919,1.0,4.311368074434276,231.9449378330373,-5.450381679389313,3.801526717557252,-2.015267175572519,-0.29685157421289354,0.2788605697151424,-0.3193403298350824,1410.2564102564102,96.97954552523105,34.1644436493516,
1771001780173.64,0.532608695652174,-5.760869565217392,-0.5543478260869565,-1.8073010173548774,-9.228007181328545,-3.1645721125074804,4029.304029304029,1795.6043956043954,1.0,4.28073668491787,233.60465116279067,-6.824427480916031,3.9236641221374042,-1.7099236641221374,-0.2908545727136432,0.272863568215892,-0.32083958020989506,1383.150183150183,96.97668543846665,34.1644436493516,
1771001780193.172,0.5217391304347826,-5.793478260869565,-0.5217391304347826,-1.8432076600837821,-9.206463195691203,-3.128665469778576,4026.373626373626,1789.7435897435896,1.0,4.255210526987531,235.00599880023992,-6.290076335877862,3.709923664122137,-2.1068702290076335,-0.2983508245877061,0.26686656671664166,-0.31784107946026985,1293.7728937728937,96.97668543846665,34.1644436493516,
1771001780212.704,0.5978260869565217,-5.826086956521739,-0.5434782608695652,-1.7426690604428485,-9.2327947336924,-3.1478156792339917,4027.8388278388275,1793.4065934065932,1.0,4.219473905885056,236.99637023593465,-6.106870229007633,4.458015267175572,-2.1221374045801524,-0.2983508245877061,0.26686656671664166,-0.3238380809595202,1209.5238095238094,96.98812580245976,34.1644436493516,
1771001780232.2358,0.5869565217391304,-5.684782608695652,-0.5760869565217391,-1.7929383602633153,-9.101137043686416,-3.1717534410532613,4004.395604395604,1758.974358974359,1.0,4.183737284782582,239.0207443563148,-6.381679389312977,4.259541984732825,-1.3893129770992365,-0.29385307346326833,0.26836581709145424,-0.3193403298350824,1138.4615384615383,96.97668543846665,34.1644436493516,
1771001780251.7678,0.6847826086956521,-5.706521739130435,-0.5978260869565217,-1.6756433273488929,-9.12986235786954,-3.2076600837821663,4001.465201465201,1747.2527472527472,1.0,4.148000663680107,241.07999999999996,-6.106870229007633,5.206106870229007,-0.21374045801526717,-0.2983508245877061,0.2773613193403298,-0.3313343328335832,1090.10989010989,96.97382535452486,34.1644436493516,
1771001780271.2998,0.6521739130434783,-5.695652173913043,-0.6195652173913043,-1.7115499700777976,-9.12028725314183,-3.2076600837821663,4029.304029304029,1783.150183150183,1.0,4.122474505749766,242.5727554179567,-6.748091603053435,4.519083969465648,0.564885496183206,-0.2848575712143928,0.2698650674662669,-0.32083958020989506,1063.7362637362637,96.9852657072276,34.1644436493516,
1771001780290.8318,0.7065217391304348,-5.760869565217392,-0.5760869565217391,-1.632555356074207,-9.158587672052663,-3.190903650508677,4021.978021978022,1782.4175824175823,1.0,4.096948347819428,244.08411214953276,-6.625954198473282,5.007633587786259,-0.9007633587786259,-0.29235382308845576,0.26836581709145424,-0.31634182908545727,1063.7362637362637,96.98605771519803,34.169468821916965,
1771001780310.3638,0.6413043478260869,-5.663043478260869,-0.5434782608695652,-1.7043686415320167,-9.101137043686416,-3.1310592459605027,4027.8388278388275,1792.6739926739926,1.0,4.096948347819428,244.08411214953276,-5.648854961832061,3.679389312977099,-1.7099236641221374,-0.2983508245877061,0.2893553223388306,-0.3298350824587706,1056.4102564102564,96.98033748689382,34.169468821916965,
1771001780329.8958,0.6739130434782609,-5.717391304347826,-0.6195652173913043,-1.6900059844404547,-9.11310592459605,-3.2076600837821663,4030.7692307692305,1802.9304029304028,1.0,4.096948347819428,244.08411214953276,-6.106870229007633,0.47328244274809156,-1.9389312977099236,-0.2908545727136432,0.2623688155922039,-0.32083958020989506,1038.8278388278388,96.98605771519803,34.169468821916965,
1771001780349.4275,0.6195652173913043,-5.717391304347826,-0.6521739130434783,-1.7307001795332135,-9.151406343506881,-3.2483542788749253,4029.304029304029,1799.2673992673992,1.0,4.096948347819428,244.08411214953276,-6.152671755725191,-0.33587786259541985,-2.4885496183206106,-0.29535232383808097,0.29235382308845576,-0.32233883058470764,1043.956043956044,96.97747737697567,34.169468821916965,
1771001780368.9597,0.5978260869565217,-5.75,-0.6847826086956521,-1.7642130460801915,-9.165769000598443,-3.293836026331538,4023.4432234432234,1789.0109890109889,1.0,4.096948347819428,244.08411214953276,-5.984732824427481,-0.7480916030534351,-1.5419847328244274,-0.29685157421289354,0.2623688155922039,-0.31634182908545727,1076.1904761904761,96.97747737697567,34.169468821916965,
1771001780388.4917,0.6304347826086957,-5.739130434782608,-0.6413043478260869,-1.7091561938958706,-9.144225014961101,-3.2675044883303412,4007.326007326007,1764.8351648351647,2.0,4.031501831501831,248.0465200799564,-5.419847328244274,-1.8931297709923662,-2.091603053435114,-0.29685157421289354,0.26686656671664166,-0.3193403298350824,1156.7765567765566,96.97747737697567,34.169468821916965,
1771001780408.0237,0.5978260869565217,-5.782608695652174,-0.6413043478260869,-1.7307001795332135,-9.16098144823459,-3.2076600837821663,4002.9304029304026,1744.3223443223442,2.0,4.041758241758242,247.41707449700925,-5.770992366412213,-1.2519083969465647,-2.3664122137404577,-0.3118440779610195,0.2638680659670165,-0.3193403298350824,1289.3772893772893,96.97461726988017,34.169468821916965,
1771001780427.5557,0.6195652173913043,-5.760869565217392,-0.6195652173913043,-1.7666068222621185,-9.196888090963494,-3.2483542788749253,4029.304029304029,1783.150183150183,2.0,4.056410256410255,246.5233881163085,-4.717557251908397,-2.564885496183206,-2.381679389312977,-0.29985007496251875,0.27586206896551724,-0.3193403298350824,1429.3040293040292,96.98033748689382,34.169468821916965,
1771001780447.0876,0.6304347826086957,-5.739130434782608,-0.6304347826086957,-1.7402752842609215,-9.182525433871932,-3.2244165170556554,4021.978021978022,1783.150183150183,2.0,4.072527472527472,245.5477603885591,-5.129770992366412,-3.7251908396946565,-2.0,-0.29685157421289354,0.26836581709145424,-0.31634182908545727,1536.9963369963368,96.98605771519803,34.169468821916965,
1771001780466.6196,0.6195652173913043,-5.717391304347826,-0.5652173913043478,-1.7666068222621185,-9.175344105326152,-3.226810293237582,4030.7692307692305,1799.9999999999998,2.0,4.1003663003663,243.88065034840096,-3.9389312977099236,-3.5572519083969465,-1.7251908396946565,-0.29685157421289354,0.27136431784107945,-0.32083958020989506,1610.2564102564102,96.98033748689382,34.169468821916965,
1771001780486.1516,0.6847826086956521,-5.717391304347826,-0.6086956521739131,-1.6828246558946738,-9.13704368641532,-3.2363853979652903,4029.304029304029,1797.8021978021977,2.0,4.122344322344321,242.5804158521415,-3.2061068702290076,-2.687022900763359,-2.4580152671755724,-0.29685157421289354,0.2893553223388306,-0.3373313343328336,1635.8974358974358,96.98891783358408,34.169468821916965,
1771001780505.6836,0.6304347826086957,-5.739130434782608,-0.6304347826086957,-1.6612806702573308,-9.151406343506881,-3.269898264512268,4020.5128205128203,1774.3589743589741,2.0,4.134065934065935,241.8926103136629,-3.5267175572519083,-2.396946564885496,-2.1068702290076335,-0.29385307346326833,0.2908545727136432,-0.328335832083958,1627.8388278388277,96.98891783358408,34.169468821916965,
1771001780525.2156,0.5869565217391304,-5.739130434782608,-0.6956521739130435,-1.7618192698982644,-9.141831238779174,-3.2675044883303412,4029.304029304029,1791.2087912087911,2.0,4.142857142857143,241.37931034482756,-3.66412213740458,-1.648854961832061,-2.1068702290076335,-0.28785607196401797,0.2848575712143928,-0.31334332833583206,1597.069597069597,96.97747737697567,34.169468821916965,
1771001780544.7476,0.5869565217391304,-5.760869565217392,-0.6956521739130435,-1.7546379413524835,-9.163375224416518,-3.305804907241173,4008.7912087912086,1761.172161172161,2.0,4.157509157509158,240.52863436123346,-2.9770992366412212,-1.8931297709923662,-1.9236641221374045,-0.29535232383808097,0.25487256371814093,-0.31784107946026985,1547.2527472527472,96.98605771519803,34.169468821916965,
1771001780564.2795,0.6304347826086957,-5.739130434782608,-0.6956521739130435,-1.7474566128067026,-9.139437462597247,-3.301017354877319,4030.7692307692305,1797.069597069597,0.0,103.96734277331292,9.61840490797546,-2.4122137404580153,-1.4961832061068703,-2.015267175572519,-0.29985007496251875,0.26686656671664166,-0.32233883058470764,1499.6336996336995,96.98033748689382,34.169468821916965,
1771001780583.8113,0.6304347826086957,-5.739130434782608,-0.6956521739130435,-1.7522441651705565,-9.132256134051467,-3.2986235786953917,4030.7692307692305,1797.069597069597,2.0,4.179487179487181,239.26380368098157,-2.4427480916030535,-1.4351145038167938,-2.2748091603053435,-0.2908545727136432,0.2773613193403298,-0.3268365817091454,1499.6336996336995,96.97461726988017,34.169468821916965,
1771001780603.3433,0.5543478260869565,-5.717391304347826,-0.6956521739130435,-1.7881508078994615,-9.151406343506881,-3.312986235786954,4029.304029304029,1797.069597069597,2.0,4.213186813186813,237.35002608242044,-3.16030534351145,-0.4580152671755725,-1.7251908396946565,-0.2908545727136432,0.2608695652173913,-0.3193403298350824,1466.6666666666665,96.98033748689382,34.169468821916965,
1771001780622.8752,0.5978260869565217,-5.739130434782608,-0.6956521739130435,-1.7833632555356074,-9.141831238779174,-3.3034111310592458,4001.465201465201,1758.2417582417581,2.0,4.224908424908426,236.69152072134557,-3.5114503816793894,-0.2748091603053435,-1.9541984732824427,-0.2818590704647676,0.2863568215892054,-0.3268365817091454,1467.3992673992673,96.98605771519803,34.169468821916965,
1771001780642.4072,0.5760869565217391,-5.728260869565217,-0.6304347826086957,-1.7833632555356074,-9.149012567324954,-3.274685816876122,4029.304029304029,1786.8131868131868,2.0,4.233699633699634,236.20003460806367,-3.877862595419847,0.0916030534351145,-1.7404580152671756,-0.2893553223388306,0.2638680659670165,-0.328335832083958,1467.3992673992673,96.97461726988017,34.169468821916965,
1771001780661.9392,0.5760869565217391,-5.739130434782608,-0.6304347826086957,-1.7833632555356074,-9.165769000598443,-3.202872531418312,4021.978021978022,1783.8827838827838,2.0,4.246886446886447,235.46662066586165,-4.091603053435114,0.061068702290076333,-1.2213740458015268,-0.29985007496251875,0.2893553223388306,-0.335832083958021,1460.8058608058607,96.97747737697567,34.169468821916965,
1771001780681.4712,0.5760869565217391,-5.739130434782608,-0.5869565217391304,-1.7809694793536803,-9.141831238779174,-3.190903650508677,4023.4432234432234,1783.8827838827838,2.0,4.26007326007326,234.737747205503,-4.1679389312977095,-0.07633587786259542,-0.9465648854961831,-0.2908545727136432,0.280359820089955,-0.3328335832083958,1441.7582417582416,96.98605771519803,34.169468821916965,
1771001780701.0032,0.6195652173913043,-5.728260869565217,-0.6304347826086957,-1.7522441651705565,-9.158587672052663,-3.190903650508677,4002.9304029304026,1750.18315018315,2.0,4.268864468864469,234.25433327612836,-3.145038167938931,-1.0534351145038168,-1.7251908396946565,-0.29385307346326833,0.2638680659670165,-0.32083958020989506,1422.7106227106226,96.97747737697567,34.169468821916965,
1771001780720.5352,0.6304347826086957,-5.739130434782608,-0.6195652173913043,-1.7378815080789947,-9.144225014961101,-3.2483542788749253,4027.8388278388275,1783.150183150183,2.0,4.274725274725275,233.9331619537275,-3.465648854961832,-1.1755725190839694,-1.3587786259541985,-0.29235382308845576,0.2698650674662669,-0.32233883058470764,1408.7912087912086,96.98033748689382,34.169468821916965,
1771001780740.0671,0.6086956521739131,-5.706521739130435,-0.6195652173913043,-1.7522441651705565,-9.132256134051467,-3.2244165170556554,4029.304029304029,1793.4065934065932,2.0,4.2805860805860805,233.61287010097553,-3.099236641221374,-0.366412213740458,-1.6030534351145038,-0.29235382308845576,0.272863568215892,-0.3268365817091454,1394.139194139194,96.97747737697567,34.169468821916965,
1771001780759.599,0.5978260869565217,-5.717391304347826,-0.6521739130434783,-1.7690005984440453,-9.134649910233392,-3.241172950329144,4020.5128205128203,1779.4871794871794,2.0,4.286446886446886,233.29345411040848,-2.8702290076335877,-0.41221374045801523,-1.4045801526717556,-0.2908545727136432,0.280359820089955,-0.3298350824587706,1369.230769230769,96.98891783358408,34.169468821916965,
1771001780779.131,0.5760869565217391,-5.717391304347826,-0.6521739130434783,-1.7953321364452424,-9.153800119688809,-3.269898264512268,3999.9999999999995,1746.5201465201465,2.0,4.298168498168498,232.65723538435316,-3.145038167938931,-0.8854961832061068,-1.816793893129771,-0.29535232383808097,0.2653673163418291,-0.3313343328335832,1336.9963369963368,96.98891783358408,34.169468821916965,
1771001780798.663,0.5543478260869565,-5.760869565217392,-0.6739130434782609,-1.8096947935368042,-9.170556552962298,-3.269898264512268,4029.304029304029,1783.150183150183,2.0,4.32014652014652,231.47363065965746,-2.748091603053435,-0.0916030534351145,-2.030534351145038,-0.29385307346326833,0.29235382308845576,-0.3298350824587706,1317.9487179487178,96.98605771519803,34.169468821916965,
1771001780818.195,0.5108695652173912,-5.728260869565217,-0.5543478260869565,-1.8216636744464392,-9.196888090963494,-3.2076600837821663,4027.8388278388275,1791.9413919413919,2.0,4.36996336996337,228.83487007544008,-1.5877862595419847,-1.3587786259541985,-2.030534351145038,-0.29985007496251875,0.2833583208395802,-0.33883058470764615,1320.8791208791208,96.97747737697567,34.169468821916965,
1771001780837.727,0.5217391304347826,-5.760869565217392,-0.5543478260869565,-1.8479952124476362,-9.16816277678037,-3.2004787552363854,4021.978021978022,1785.3479853479853,2.0,4.4212454212454215,226.18061309030654,-1.1908396946564885,-0.7633587786259541,-0.4580152671755725,-0.2908545727136432,0.2623688155922039,-0.32083958020989506,1360.4395604395604,96.98033748689382,34.169468821916965,
1771001780857.259,0.6086956521739131,-5.760869565217392,-0.6630434782608695,-1.7809694793536803,-9.101137043686416,-3.1956912028725313,4010.25641025641,1765.5677655677655,2.0,4.447619047619048,224.83940042826552,-1.9694656488549618,-4.381679389312977,-0.42748091603053434,-0.2833583208395802,0.272863568215892,-0.328335832083958,1425.6410256410256,96.98033748689382,34.169468821916965,
1771001780876.791,0.5652173913043478,-5.695652173913043,-0.6304347826086957,-1.7498503889886294,-9.141831238779174,-3.265110712148414,4001.465201465201,1748.7179487179485,2.0,4.447619047619048,224.83940042826552,-2.1068702290076335,-4.244274809160305,-0.07633587786259542,-0.2908545727136432,0.27136431784107945,-0.328335832083958,1482.051282051282,96.97747737697567,34.169468821916965,
1771001780896.323,0.5108695652173912,-5.771739130434782,-0.6195652173913043,-1.8384201077199283,-9.204069419509276,-3.250748055056852,4029.304029304029,1783.150183150183,2.0,4.447619047619048,224.83940042826552,-3.099236641221374,-2.198473282442748,-0.13740458015267176,-0.28785607196401797,0.2698650674662669,-0.3298350824587706,1495.2380952380952,96.98605771519803,34.169468821916965,
1771001780915.855,0.532608695652174,-5.771739130434782,-0.6413043478260869,-1.82884500299222,-9.146618791143029,-3.2172351885098744,4021.978021978022,1783.150183150183,2.0,4.447619047619048,224.83940042826552,-0.9770992366412213,-3.145038167938931,-0.04580152671755725,-0.29685157421289354,0.27586206896551724,-0.3268365817091454,1478.3882783882782,96.98033748689382,34.169468821916965,
1771001780935.387,0.5434782608695652,-5.782608695652174,-0.6195652173913043,-1.8144823459006583,-9.2327947336924,-3.269898264512268,4001.465201465201,1753.8461538461538,2.0,4.447619047619048,224.83940042826552,-2.16793893129771,-2.229007633587786,-0.15267175572519084,-0.29685157421289354,0.26836581709145424,-0.32083958020989506,1460.8058608058607,96.98891783358408,34.169468821916965,
1771001780954.919,0.5652173913043478,-5.782608695652174,-0.5652173913043478,-1.7977259126271694,-9.17773788150808,-3.1932974266906045,4030.7692307692305,1791.2087912087911,1.0,4.525787801049124,220.95600676818952,-2.9923664122137406,-2.610687022900763,0.2595419847328244,-0.2983508245877061,0.28785607196401797,-0.3328335832083958,1460.8058608058607,96.98891783358408,34.169468821916965,
1771001780974.451,0.5978260869565217,-5.75,-0.5543478260869565,-1.7881508078994615,-9.194494314781569,-3.1669658886894076,4024.9084249084244,1792.6739926739926,1.0,4.53599826422126,220.4586381541925,-4.458015267175572,-3.0076335877862594,0.22900763358778625,-0.28785607196401797,0.28785607196401797,-0.33883058470764615,1481.3186813186812,96.97747737697567,34.169468821916965,
1771001780993.983,0.5869565217391304,-5.695652173913043,-0.5543478260869565,-1.7666068222621185,-9.127468581687612,-3.1358467983243568,4030.7692307692305,1802.197802197802,1.0,4.551313958979464,219.71676948962426,-5.358778625954198,-2.0,0.3053435114503817,-0.29235382308845576,0.280359820089955,-0.33883058470764615,1534.065934065934,96.98605771519803,34.169468821916965,
1771001781013.5146,0.5543478260869565,-5.717391304347826,-0.532608695652174,-1.8192698982645121,-9.134649910233392,-3.1358467983243568,4002.9304029304026,1754.5787545787546,1.0,4.556419190565531,219.47058823529414,-4.488549618320611,-0.8854961832061068,-0.183206106870229,-0.29385307346326833,0.27586206896551724,-0.33883058470764615,1555.311355311355,96.98605771519803,34.169468821916965,
1771001781033.0466,0.5434782608695652,-5.663043478260869,-0.4782608695652174,-1.8073010173548774,-9.079593058049072,-3.092758827049671,4001.465201465201,1745.7875457875457,1.0,4.5666296537376665,218.9798770262717,-3.7862595419847325,-0.9923664122137404,0.030534351145038167,-0.2983508245877061,0.26836581709145424,-0.3403298350824588,1562.6373626373625,96.98891783358408,34.169468821916965,
1771001781052.5786,0.4891304347826087,-5.717391304347826,-0.4891304347826087,-1.8551765409934171,-9.127468581687612,-3.056852184320766,4027.8388278388275,1782.4175824175823,1.0,4.576840116909804,218.49135527049634,-3.618320610687023,-1.4198473282442747,-0.732824427480916,-0.29535232383808097,0.2698650674662669,-0.34782608695652173,1553.113553113553,96.97461726988017,34.169468821916965,
1771001781072.1106,0.4782608695652174,-5.663043478260869,-0.43478260869565216,-1.9006582884500298,-9.086774386594854,-2.9970077797725914,4020.5128205128203,1776.5567765567764,1.0,4.581945348495872,218.2479108635097,-3.0229007633587783,-1.9083969465648853,-1.3587786259541985,-0.29685157421289354,0.2773613193403298,-0.34332833583208394,1510.6227106227104,96.97747737697567,34.169468821916965,
1771001781091.6426,0.532608695652174,-5.739130434782608,-0.4891304347826087,-1.8575703171753442,-9.17773788150808,-3.087971274685817,4029.304029304029,1791.9413919413919,1.0,4.5921558116680075,217.76264591439684,-2.5343511450381677,-3.969465648854962,-2.183206106870229,-0.28785607196401797,0.2623688155922039,-0.3238380809595202,1454.9450549450548,96.98033748689382,34.169468821916965,
1771001781111.1746,0.5,-5.782608695652174,-0.5434782608695652,-1.869539198084979,-9.165769000598443,-3.1310592459605027,4029.304029304029,1795.6043956043954,1.0,4.5921558116680075,217.76264591439684,-1.9236641221374045,-4.1679389312977095,-2.183206106870229,-0.29685157421289354,0.28785607196401797,-0.3328335832083958,1464.4688644688645,96.98605771519803,34.169468821916965,
1771001781130.7063,0.44565217391304346,-5.815217391304348,-0.5652173913043478,-1.9317773788150807,-9.220825852782765,-3.1406343506882104,4029.304029304029,1797.069597069597,1.0,4.5972610432540755,217.5208217656857,-2.1374045801526718,-1.6335877862595418,-1.5419847328244274,-0.29685157421289354,0.2653673163418291,-0.3298350824587706,1533.3333333333333,96.98605771519803,34.169468821916965,
1771001781150.2383,0.5,-5.717391304347826,-0.5543478260869565,-1.869539198084979,-9.170556552962298,-3.1597845601436263,4023.4432234432234,1788.278388278388,1.0,4.5972610432540755,217.5208217656857,-1.7404580152671756,-0.6259541984732824,-1.099236641221374,-0.29535232383808097,0.26836581709145424,-0.34332833583208394,1640.2930402930401,96.98605771519803,34.169468821916965,
1771001781169.7705,0.4782608695652174,-5.804347826086956,-0.6521739130434783,-1.874326750448833,-9.237582286056254,-3.2076600837821663,4004.395604395604,1757.5091575091574,1.0,4.602366274840143,217.27953410981695,-1.816793893129771,0.07633587786259542,-0.9618320610687022,-0.29235382308845576,0.2698650674662669,-0.33883058470764615,1742.124542124542,96.98033748689382,34.169468821916965,
1771001781189.3025,0.5108695652173912,-5.771739130434782,-0.5978260869565217,-1.8432076600837821,-9.18491921005386,-3.1932974266906045,4002.9304029304026,1742.124542124542,1.0,4.607471506426211,217.03878116343486,-2.198473282442748,1.099236641221374,-0.8091603053435115,-0.2983508245877061,0.27586206896551724,-0.34632683658170915,1805.128205128205,96.98605771519803,34.169468821916965,
1771001781208.8345,0.5434782608695652,-5.663043478260869,-0.4891304347826087,-1.8336325553560742,-9.134649910233392,-3.1119090365050868,4029.304029304029,1782.4175824175823,1.0,4.607471506426211,217.03878116343486,-2.610687022900763,1.083969465648855,-0.366412213740458,-0.3028485757121439,0.2698650674662669,-0.335832083958021,1809.5238095238094,96.98605771519803,34.169468821916965,
1771001781228.3665,0.5108695652173912,-5.815217391304348,-0.5,-1.864751645721125,-9.261520047875523,-3.1071214841412327,4019.047619047619,1780.9523809523807,1.0,4.612576738012279,216.7985611510791,-3.49618320610687,2.015267175572519,-0.7175572519083969,-0.29535232383808097,0.2833583208395802,-0.328335832083958,1761.172161172161,96.98033748689382,34.169468821916965,
1771001781247.8984,0.532608695652174,-5.663043478260869,-0.5,-1.8479952124476362,-9.213644524236983,-3.0903650508677436,3999.9999999999995,1746.5201465201465,1.0,4.617681969598347,216.55887230514094,-4.152671755725191,1.3129770992366412,-1.1450381679389312,-0.28785607196401797,0.29385307346326833,-0.3298350824587706,1681.3186813186812,96.98319759963461,34.169468821916965,
1771001781267.4304,0.5108695652173912,-5.75,-0.43478260869565216,-1.864751645721125,-9.20885697187313,-3.020945541591861,4029.304029304029,1783.150183150183,1.0,4.617681969598347,216.55887230514094,-3.312977099236641,0.564885496183206,-1.3129770992366412,-0.2893553223388306,0.2608695652173913,-0.32083958020989506,1583.150183150183,96.98605771519803,34.169468821916965,
1771001781286.9624,0.46739130434782605,-5.880434782608695,-0.3913043478260869,-1.8456014362657092,-9.156193895870736,-3.06163973668462,4027.8388278388275,1791.9413919413919,1.0,4.622787201184415,216.31971286581995,-2.0763358778625953,0.3053435114503817,-1.2061068702290076,-0.2893553223388306,0.2698650674662669,-0.3268365817091454,1475.4578754578754,96.98684972558316,34.174493994773364,
1771001781306.4944,0.5,-5.739130434782608,-0.41304347826086957,-1.862357869539198,-9.146618791143029,-2.9778575703171755,4020.5128205128203,1779.4871794871794,1.0,4.622787201184415,216.31971286581995,-2.396946564885496,0.3511450381679389,-2.3053435114503817,-0.28785607196401797,0.2788605697151424,-0.3403298350824588,1377.2893772893772,96.98970986712315,34.174493994773364,
1771001781326.0264,0.46739130434782605,-5.826086956521739,-0.5108695652173912,-1.8551765409934171,-9.273488928785158,-3.06163973668462,4002.9304029304026,1748.7179487179485,1.0,4.627892432770482,216.08108108108107,-2.1221374045801524,-0.0916030534351145,-1.7251908396946565,-0.2983508245877061,0.27136431784107945,-0.33433283358320837,1312.087912087912,96.98684972558316,34.174493994773364,
1771001781345.5583,0.46739130434782605,-5.771739130434782,-0.5,-1.907839616995811,-9.273488928785158,-3.1573907839616995,3999.9999999999995,1737.7289377289376,1.0,4.627892432770482,216.08108108108107,-1.8931297709923662,0.2900763358778626,-1.4961832061068703,-0.29535232383808097,0.272863568215892,-0.33433283358320837,1285.7142857142856,96.97826931789925,34.174493994773364,
1771001781365.0903,0.5108695652173912,-5.728260869565217,-0.46739130434782605,-1.893476959904249,-9.170556552962298,-3.1071214841412327,4027.8388278388275,1779.4871794871794,1.0,4.63299766435655,215.84297520661156,-2.16793893129771,0.15267175572519084,-1.0687022900763359,-0.2848575712143928,0.2788605697151424,-0.33883058470764615,1287.179487179487,96.97540918764999,34.174493994773364,
1771001781384.6223,0.5108695652173912,-5.8478260869565215,-0.5652173913043478,-1.8456014362657092,-9.026929982046678,-3.0999401555954518,4019.047619047619,1780.2197802197802,1.0,4.63299766435655,215.84297520661156,-2.9923664122137406,1.4045801526717556,-0.9618320610687022,-0.29685157421289354,0.2773613193403298,-0.33433283358320837,1257.142857142857,96.98112945097122,34.174493994773364,
1771001781404.1543,0.4891304347826087,-5.739130434782608,-0.5108695652173912,-1.9126271693596648,-9.192100538599641,-3.0951526032315977,3998.5347985347985,1745.7875457875457,1.0,4.638102895942618,215.60539350577872,-2.549618320610687,0.5343511450381679,-0.8091603053435115,-0.2863568215892054,0.2893553223388306,-0.335832083958021,1279.8534798534797,96.98398958686583,34.174493994773364,
1771001781423.686,0.532608695652174,-5.793478260869565,-0.5434782608695652,-1.864751645721125,-9.189706762417714,-3.0903650508677436,4027.8388278388275,1781.6849816849815,1.0,4.638102895942618,215.60539350577872,-3.3587786259541983,0.7022900763358778,-1.450381679389313,-0.29385307346326833,0.2578710644677661,-0.335832083958021,1332.6007326007325,96.97826931789925,34.174493994773364,
1771001781443.218,0.4782608695652174,-5.771739130434782,-0.5,-1.87672052663076,-9.199281867145421,-3.080789946140036,4024.9084249084244,1789.7435897435896,1.0,4.638102895942618,215.60539350577872,-3.5725190839694654,0.8549618320610687,-1.5267175572519083,-0.29385307346326833,0.27436281859070466,-0.3448275862068965,1400.0,96.97826931789925,34.174493994773364,
1771001781462.75,0.4891304347826087,-5.771739130434782,-0.4891304347826087,-1.8551765409934171,-9.199281867145421,-3.080789946140036,4026.373626373626,1788.278388278388,1.0,4.638102895942618,215.60539350577872,-3.49618320610687,0.9465648854961831,-1.3435114503816794,-0.2908545727136432,0.2818590704647676,-0.33883058470764615,1441.7582417582416,96.97826931789925,34.174493994773364,
1771001781482.282,0.532608695652174,-5.760869565217392,-0.4782608695652174,-1.850388988629563,-9.172950329144225,-3.066427289048474,4002.9304029304026,1750.9157509157508,1.0,4.643208127528686,215.36833424958766,-3.66412213740458,1.5267175572519083,-1.3129770992366412,-0.29385307346326833,0.272863568215892,-0.33883058470764615,1429.3040293040292,96.97826931789925,34.174493994773364,
1771001781501.814,0.5,-5.771739130434782,-0.4782608695652174,-1.864751645721125,-9.199281867145421,-3.049670855774985,3999.9999999999995,1745.054945054945,1.0,4.643208127528686,215.36833424958766,-4.030534351145038,2.5038167938931295,-0.9923664122137404,-0.28785607196401797,0.280359820089955,-0.34332833583208394,1402.197802197802,96.98970986712315,34.174493994773364,
1771001781521.346,0.5,-5.760869565217392,-0.46739130434782605,-1.867145421903052,-9.199281867145421,-3.023339317773788,4027.8388278388275,1782.4175824175823,1.0,4.643208127528686,215.36833424958766,-4.259541984732825,2.030534351145038,-0.6564885496183206,-0.2848575712143928,0.272863568215892,-0.34182908545727136,1365.5677655677655,96.98970986712315,34.174493994773364,
1771001781540.878,0.44565217391304346,-5.706521739130435,-0.42391304347826086,-1.874326750448833,-9.211250748055056,-3.042489527229204,4019.047619047619,1780.9523809523807,1.0,4.648313359114754,215.13179571663917,-4.122137404580153,1.5419847328244274,-0.7633587786259541,-0.29385307346326833,0.29235382308845576,-0.3313343328335832,1312.087912087912,96.98398958686583,34.174493994773364,
1771001781560.41,0.5217391304347826,-5.793478260869565,-0.5,-1.8240574506283662,-9.273488928785158,-3.097546379413525,4029.304029304029,1791.9413919413919,1.0,4.643208127528686,215.36833424958766,-4.030534351145038,0.47328244274809156,-0.9312977099236641,-0.29985007496251875,0.2698650674662669,-0.328335832083958,1263.003663003663,96.97826931789925,34.174493994773364,
1771001781579.942,0.5108695652173912,-5.793478260869565,-0.5,-1.867145421903052,-9.204069419509276,-3.068821065230401,4029.304029304029,1795.6043956043954,1.0,4.643208127528686,215.36833424958766,-4.717557251908397,0.7175572519083969,-1.5267175572519083,-0.29235382308845576,0.2818590704647676,-0.34632683658170915,1237.3626373626373,96.98684972558316,34.174493994773364,
1771001781599.474,0.5108695652173912,-5.793478260869565,-0.4891304347826087,-1.8479952124476362,-9.235188509874327,-3.076002393776182,4024.9084249084244,1793.4065934065932,1.0,4.648313359114754,215.13179571663917,-5.267175572519084,-0.12213740458015267,-2.0610687022900764,-0.29385307346326833,0.280359820089955,-0.33883058470764615,1225.6410256410256,96.98398958686583,34.174493994773364,
1771001781619.006,0.5217391304347826,-5.804347826086956,-0.5,-1.8384201077199283,-9.22561340514662,-3.0903650508677436,4020.5128205128203,1780.2197802197802,1.0,4.648313359114754,215.13179571663917,-5.7251908396946565,-0.030534351145038167,-2.183206106870229,-0.29235382308845576,0.272863568215892,-0.3373313343328336,1231.5018315018315,96.97826931789925,34.174493994773364,
1771001781638.5378,0.5217391304347826,-5.793478260869565,-0.4782608695652174,-1.869539198084979,-9.21603830041891,-3.078396169958109,4020.5128205128203,1775.8241758241757,1.0,4.648313359114754,215.13179571663917,-6.198473282442748,-0.030534351145038167,-2.259541984732824,-0.29985007496251875,0.2653673163418291,-0.328335832083958,1231.5018315018315,96.98684972558316,34.174493994773364,
1771001781658.0698,0.5108695652173912,-5.75,-0.4782608695652174,-1.85278276481149,-9.199281867145421,-3.076002393776182,4029.304029304029,1791.2087912087911,1.0,4.648313359114754,215.13179571663917,-6.290076335877862,0.32061068702290074,-2.1221374045801524,-0.2908545727136432,0.26836581709145424,-0.3313343328335832,1240.2930402930401,96.97540918764999,34.174493994773364,
1771001781677.6018,0.4891304347826087,-5.739130434782608,-0.44565217391304346,-1.8551765409934171,-9.16816277678037,-3.042489527229204,4029.304029304029,1795.6043956043954,1.0,4.648313359114754,215.13179571663917,-6.33587786259542,0.2900763358778626,-2.213740458015267,-0.29685157421289354,0.27436281859070466,-0.3298350824587706,1248.3516483516482,96.97540918764999,34.174493994773364,
1771001781697.1338,0.4891304347826087,-5.728260869565217,-0.4891304347826087,-1.886295631358468,-9.146618791143029,-3.032914422501496,4017.5824175824173,1778.7545787545787,1.0,4.648313359114754,215.13179571663917,-6.213740458015267,-0.22900763358778625,-1.83206106870229,-0.2908545727136432,0.2893553223388306,-0.3328335832083958,1243.2234432234432,96.97540918764999,34.174493994773364,
1771001781716.6658,0.4782608695652174,-5.739130434782608,-0.43478260869565216,-1.8910831837223219,-9.172950329144225,-3.047277079593058,4029.304029304029,1791.9413919413919,1.0,4.653418590700821,214.8957761930883,-5.877862595419847,-0.5038167938931297,-1.7709923664122136,-0.29985007496251875,0.29685157421289354,-0.3268365817091454,1243.2234432234432,96.97826931789925,34.174493994773364,
1771001781736.1978,0.46739130434782605,-5.771739130434782,-0.44565217391304346,-1.9126271693596648,-9.175344105326152,-3.035308198683423,4027.8388278388275,1794.8717948717947,1.0,4.653418590700821,214.8957761930883,-5.648854961832061,-0.38167938931297707,-2.015267175572519,-0.29685157421289354,0.2623688155922039,-0.3313343328335832,1238.095238095238,96.97826931789925,34.174493994773364,
1771001781755.7295,0.45652173913043476,-5.782608695652174,-0.45652173913043476,-1.917414721723519,-9.20885697187313,-3.006582884500299,4024.9084249084244,1794.8717948717947,1.0,4.653418590700821,214.8957761930883,-5.343511450381679,-0.33587786259541985,-1.9236641221374045,-0.29385307346326833,0.27586206896551724,-0.33433283358320837,1221.9780219780218,96.98112945097122,34.174493994773364,
1771001781775.2617,0.43478260869565216,-5.717391304347826,-0.46739130434782605,-1.87672052663076,-9.22561340514662,-3.035308198683423,4020.5128205128203,1780.2197802197802,1.0,4.653418590700821,214.8957761930883,-4.67175572519084,-0.12213740458015267,-0.9770992366412213,-0.2983508245877061,0.2788605697151424,-0.34332833583208394,1203.6630036630036,96.98398958686583,34.174493994773364,
1771001781794.7937,0.45652173913043476,-5.728260869565217,-0.5108695652173912,-1.9198084979054457,-9.115499700777978,-3.076002393776182,4021.978021978022,1782.4175824175823,1.0,4.653418590700821,214.8957761930883,-4.824427480916031,0.5190839694656488,-1.1603053435114503,-0.29235382308845576,0.280359820089955,-0.33433283358320837,1181.6849816849815,96.98684972558316,34.174493994773364,
1771001781814.3257,0.45652173913043476,-5.684782608695652,-0.43478260869565216,-1.869539198084979,-9.266307600239378,-3.049670855774985,4027.8388278388275,1791.9413919413919,1.0,4.653418590700821,214.8957761930883,-3.679389312977099,1.0687022900763359,0.24427480916030533,-0.29235382308845576,0.27436281859070466,-0.3328335832083958,1164.8351648351647,96.97826931789925,34.174493994773364,
1771001781833.8574,0.5,-5.75,-0.4782608695652174,-1.9389587073608616,-9.01735487731897,-3.0999401555954518,4027.8388278388275,1794.8717948717947,1.0,4.653418590700821,214.8957761930883,-4.67175572519084,-0.3969465648854962,-1.4045801526717556,-0.2893553223388306,0.27436281859070466,-0.32083958020989506,1144.3223443223442,96.98112945097122,34.174493994773364,
1771001781853.3894,0.45652173913043476,-5.728260869565217,-0.4891304347826087,-1.907839616995811,-9.16098144823459,-3.052064631956912,4017.5824175824173,1778.7545787545787,1.0,4.658523822286889,214.6602739726027,-4.33587786259542,-2.4732824427480917,-0.9923664122137404,-0.29235382308845576,0.2848575712143928,-0.33433283358320837,1131.8681318681317,96.98684972558316,34.174493994773364,
1771001781872.9214,0.44565217391304346,-5.760869565217392,-0.5,-1.9365649311789348,-9.182525433871932,-3.066427289048474,4029.304029304029,1791.9413919413919,1.0,4.658523822286889,214.6602739726027,-3.2671755725190836,-2.6564885496183206,-1.2519083969465647,-0.2983508245877061,0.2908545727136432,-0.34182908545727136,1159.7069597069597,96.97540918764999,34.174493994773364,
1771001781892.4534,0.46739130434782605,-5.739130434782608,-0.532608695652174,-1.9198084979054457,-9.16816277678037,-3.104727707959306,4029.304029304029,1795.6043956043954,1.0,4.658523822286889,214.6602739726027,-3.49618320610687,-2.091603053435114,-1.4045801526717556,-0.2983508245877061,0.28785607196401797,-0.335832083958021,1238.8278388278388,96.98970986712315,34.174493994773364,
1771001781911.9854,0.46739130434782605,-5.728260869565217,-0.5,-1.9030520646319569,-9.16816277678037,-3.0999401555954518,4024.9084249084244,1793.4065934065932,1.0,4.658523822286889,214.6602739726027,-3.5877862595419847,-0.6412213740458015,-1.4351145038167938,-0.28785607196401797,0.280359820089955,-0.3403298350824588,1371.4285714285713,96.98970986712315,34.174493994773364,
1771001781931.517,0.42391304347826086,-5.760869565217392,-0.5108695652173912,-1.9461400359066428,-9.16098144823459,-3.078396169958109,4019.047619047619,1784.6153846153845,1.0,4.658523822286889,214.6602739726027,-4.641221374045801,1.2366412213740459,-0.6564885496183206,-0.29685157421289354,0.26836581709145424,-0.34632683658170915,1540.6593406593406,96.98684972558316,34.174493994773364,
1771001781951.0493,0.41304347826086957,-5.771739130434782,-0.5,-1.9605026929982046,-9.196888090963494,-3.087971274685817,4002.9304029304026,1750.18315018315,1.0,4.658523822286889,214.6602739726027,-4.625954198473282,1.4045801526717556,-0.4580152671755725,-0.2893553223388306,0.27136431784107945,-0.34182908545727136,1697.4358974358972,96.98112945097122,34.174493994773364,
1771001781970.5813,0.41304347826086957,-5.782608695652174,-0.43478260869565216,-1.9581089168162775,-9.22561340514662,-3.03770197486535,3999.9999999999995,1737.7289377289376,1.0,4.658523822286889,214.6602739726027,-4.778625954198473,1.3282442748091603,-0.9007633587786259,-0.2848575712143928,0.26686656671664166,-0.3298350824587706,1794.8717948717947,96.98112945097122,34.174493994773364,
1771001781990.1133,0.46739130434782605,-5.771739130434782,-0.4891304347826087,-1.9222022740873728,-9.196888090963494,-3.064033512866547,4026.373626373626,1773.6263736263736,1.0,4.663629053872956,214.42528735632183,-4.824427480916031,1.5419847328244274,-0.7633587786259541,-0.28785607196401797,0.2773613193403298,-0.3298350824587706,1826.3736263736262,96.98112945097122,34.174493994773364,
1771001782009.6453,0.4782608695652174,-5.728260869565217,-0.43478260869565216,-1.9150209455415919,-9.134649910233392,-3.0281268701376423,4014.6520146520143,1764.102564102564,1.0,4.663629053872956,214.42528735632183,-4.870229007633587,0.9007633587786259,-0.8091603053435115,-0.2983508245877061,0.26836581709145424,-0.328335832083958,1803.6630036630036,96.98112945097122,34.174493994773364,
1771001782029.1772,0.44565217391304346,-5.739130434782608,-0.45652173913043476,-1.9341711549970078,-9.153800119688809,-2.994614003590664,4027.8388278388275,1786.8131868131868,1.0,4.663629053872956,214.42528735632183,-4.076335877862595,0.7633587786259541,-0.6412213740458015,-0.2908545727136432,0.26836581709145424,-0.3298350824587706,1746.5201465201465,96.98970986712315,34.174493994773364,
1771001782048.7092,0.4782608695652174,-5.728260869565217,-0.4891304347826087,-1.8910831837223219,-9.146618791143029,-3.056852184320766,4027.8388278388275,1793.4065934065932,1.0,4.663629053872956,214.42528735632183,-3.7251908396946565,-0.1984732824427481,-0.6564885496183206,-0.2833583208395802,0.2893553223388306,-0.3448275862068965,1638.095238095238,96.98112945097122,34.174493994773364,
1771001782068.2412,0.42391304347826086,-5.760869565217392,-0.45652173913043476,-1.9389587073608616,-9.163375224416518,-3.01376421304608,4026.373626373626,1789.0109890109889,1.0,4.663629053872956,214.42528735632183,-3.297709923664122,-0.5038167938931297,-1.1603053435114503,-0.2893553223388306,0.2863568215892054,-0.32533733133433285,1515.7509157509157,96.97826931789925,34.174493994773364,
1771001782087.7732,0.40217391304347827,-5.771739130434782,-0.44565217391304346,-1.9533213644524237,-9.175344105326152,-3.0089766606822264,4017.5824175824173,1776.5567765567764,1.0,4.663629053872956,214.42528735632183,-2.6412213740458013,-1.5114503816793892,-1.0229007633587786,-0.29235382308845576,0.27436281859070466,-0.3403298350824588,1405.8608058608058,96.97826931789925,34.174493994773364,
1771001782107.3052,0.42391304347826086,-5.75,-0.5,-1.9652902453620587,-9.17773788150808,-3.030520646319569,4004.395604395604,1753.8461538461538,1.0,4.663629053872956,214.42528735632183,-2.8244274809160306,-1.9236641221374045,-1.2671755725190839,-0.29685157421289354,0.27436281859070466,-0.33883058470764615,1336.263736263736,96.98112945097122,34.174493994773364,
1771001782126.8372,0.3913043478260869,-5.804347826086956,-0.532608695652174,-1.9557151406343507,-9.230400957510472,-3.0999401555954518,3999.9999999999995,1739.194139194139,1.0,4.663629053872956,214.42528735632183,-3.0534351145038165,-1.129770992366412,-1.129770992366412,-0.29535232383808097,0.27586206896551724,-0.33883058470764615,1315.7509157509157,96.98112945097122,34.174493994773364,
1771001782146.3691,0.43478260869565216,-5.739130434782608,-0.532608695652174,-1.9772591262716936,-9.187312986235787,-3.1310592459605027,4027.8388278388275,1780.2197802197802,1.0,4.663629053872956,214.42528735632183,-2.8702290076335877,0.030534351145038167,-1.4351145038167938,-0.2863568215892054,0.2863568215892054,-0.33883058470764615,1335.5311355311355,96.98112945097122,34.174493994773364,
1771001782165.9011,0.45652173913043476,-5.728260869565217,-0.5434782608695652,-1.9365649311789348,-9.170556552962298,-3.1071214841412327,4013.1868131868127,1771.4285714285713,1.0,4.668734285459024,214.19081465281573,-3.129770992366412,0.7938931297709924,-1.2213740458015268,-0.29535232383808097,0.27436281859070466,-0.33883058470764615,1385.3479853479853,96.98684972558316,34.174493994773364,
1771001782185.433,0.43478260869565216,-5.728260869565217,-0.5,-1.9413524835427887,-9.156193895870736,-3.092758827049671,3999.9999999999995,1744.3223443223442,1.0,4.668734285459024,214.19081465281573,-4.091603053435114,1.66412213740458,-1.099236641221374,-0.30134932533733133,0.29385307346326833,-0.34182908545727136,1437.3626373626373,96.98684972558316,34.174493994773364,
1771001782204.965,0.43478260869565216,-5.739130434782608,-0.4891304347826087,-1.9245960502692998,-9.163375224416518,-3.066427289048474,4029.304029304029,1782.4175824175823,1.0,4.663629053872956,214.42528735632183,-3.8625954198473282,1.816793893129771,-1.2519083969465647,-0.28785607196401797,0.2848575712143928,-0.3403298350824588,1481.3186813186812,96.98970986712315,34.174493994773364,
1771001782224.497,0.40217391304347827,-5.793478260869565,-0.46739130434782605,-1.9269898264512269,-9.180131657690005,-3.076002393776182,4026.373626373626,1786.080586080586,1.0,4.663629053872956,214.42528735632183,-3.7709923664122136,1.4045801526717556,-1.2519083969465647,-0.2863568215892054,0.27586206896551724,-0.3328335832083958,1506.227106227106,96.97826931789925,34.174493994773364,
1771001782244.029,0.40217391304347827,-5.782608695652174,-0.4891304347826087,-1.9605026929982046,-9.22561340514662,-3.042489527229204,4017.5824175824173,1775.8241758241757,1.0,4.663629053872956,214.42528735632183,-3.7557251908396947,0.9618320610687022,-1.5725190839694656,-0.2848575712143928,0.2788605697151424,-0.3373313343328336,1495.970695970696,96.97826931789925,34.174493994773364,
1771001782263.5608,0.41304347826086957,-5.771739130434782,-0.5,-1.9461400359066428,-9.199281867145421,-3.064033512866547,4004.395604395604,1753.8461538461538,1.0,4.663629053872956,214.42528735632183,-4.015267175572519,1.0687022900763359,-1.5725190839694656,-0.29535232383808097,0.27136431784107945,-0.3448275862068965,1463.003663003663,96.98684972558316,34.174493994773364,
1771001782283.0928,0.44565217391304346,-5.739130434782608,-0.5,-1.9245960502692998,-9.192100538599641,-3.073608617594255,4001.465201465201,1745.054945054945,1.0,4.663629053872956,214.42528735632183,-4.030534351145038,0.9618320610687022,-1.6793893129770991,-0.2863568215892054,0.2773613193403298,-0.3313343328335832,1423.4432234432234,96.9852657072276,34.1644436493516,
1771001782302.6248,0.43478260869565216,-5.728260869565217,-0.5217391304347826,-1.917414721723519,-9.165769000598443,-3.087971274685817,4027.8388278388275,1781.6849816849815,1.0,4.663629053872956,214.42528735632183,-4.106870229007633,0.8549618320610687,-2.0610687022900764,-0.2863568215892054,0.2773613193403298,-0.3313343328335832,1379.4871794871794,96.98812580245976,34.1644436493516,
1771001782322.1567,0.43478260869565216,-5.728260869565217,-0.5108695652173912,-1.9461400359066428,-9.149012567324954,-3.0999401555954518,4011.721611721611,1765.5677655677655,1.0,4.668734285459024,214.19081465281573,-3.9847328244274807,0.6564885496183206,-2.1374045801526718,-0.2983508245877061,0.29685157421289354,-0.33883058470764615,1342.1245421245421,96.97668543846665,34.1644436493516,
1771001782341.6887,0.3913043478260869,-5.760869565217392,-0.5,-1.9533213644524237,-9.165769000598443,-3.066427289048474,4001.465201465201,1748.7179487179485,1.0,4.663629053872956,214.42528735632183,-4.045801526717557,0.38167938931297707,-1.9389312977099236,-0.29385307346326833,0.2908545727136432,-0.335832083958021,1315.7509157509157,96.97668543846665,34.1644436493516,
1771001782361.2207,0.40217391304347827,-5.771739130434782,-0.4891304347826087,-1.9485338120885696,-9.18491921005386,-3.0592459605026927,4029.304029304029,1783.8827838827838,1.0,4.668734285459024,214.19081465281573,-4.030534351145038,0.3511450381679389,-2.0,-0.29385307346326833,0.2608695652173913,-0.33433283358320837,1293.7728937728937,96.9852657072276,34.1644436493516,
1771001782380.7527,0.42391304347826086,-5.75,-0.4891304347826087,-1.9533213644524237,-9.182525433871932,-3.049670855774985,4029.304029304029,1793.4065934065932,1.0,4.668734285459024,214.19081465281573,-4.351145038167939,0.5190839694656488,-1.8473282442748091,-0.2893553223388306,0.2578710644677661,-0.33433283358320837,1276.1904761904761,96.97954552523105,34.1644436493516,
1771001782400.285,0.43478260869565216,-5.75,-0.4891304347826087,-1.9389587073608616,-9.189706762417714,-3.044883303411131,4029.304029304029,1796.3369963369962,1.0,4.668734285459024,214.19081465281573,-3.8931297709923665,0.732824427480916,-1.8625954198473282,-0.2908545727136432,0.2608695652173913,-0.3193403298350824,1272.5274725274724,96.97668543846665,34.1644436493516,
1771001782419.817,0.44565217391304346,-5.739130434782608,-0.4782608695652174,-1.9509275882704966,-9.16098144823459,-3.068821065230401,4004.395604395604,1758.974358974359,1.0,4.663629053872956,214.42528735632183,-3.709923664122137,0.6412213740458015,-1.9541984732824427,-0.2848575712143928,0.26836581709145424,-0.3298350824587706,1269.5970695970695,96.97954552523105,34.1644436493516,
1771001782439.3486,0.43478260869565216,-5.739130434782608,-0.4891304347826087,-1.9413524835427887,-9.13704368641532,-3.0592459605026927,4027.8388278388275,1786.080586080586,1.0,4.663629053872956,214.42528735632183,-3.541984732824427,0.3969465648854962,-2.2442748091603053,-0.2908545727136432,0.2698650674662669,-0.34182908545727136,1268.131868131868,96.98812580245976,34.1644436493516,
1771001782458.8806,0.41304347826086957,-5.706521739130435,-0.5,-1.9389587073608616,-9.144225014961101,-3.066427289048474,4027.8388278388275,1793.4065934065932,1.0,4.668734285459024,214.19081465281573,-4.076335877862595,0.13740458015267176,-1.984732824427481,-0.29985007496251875,0.2863568215892054,-0.3373313343328336,1271.7948717948716,96.97954552523105,34.1644436493516,
1771001782478.4126,0.41304347826086957,-5.728260869565217,-0.4891304347826087,-1.9557151406343507,-9.153800119688809,-3.073608617594255,4011.721611721611,1768.4981684981683,1.0,4.668734285459024,214.19081465281573,-4.152671755725191,0.0916030534351145,-1.8473282442748091,-0.28785607196401797,0.2638680659670165,-0.34332833583208394,1277.6556776556777,96.97954552523105,34.1644436493516,
1771001782497.9446,0.44565217391304346,-5.739130434782608,-0.4891304347826087,-1.9461400359066428,-9.165769000598443,-3.047277079593058,4001.465201465201,1743.5897435897434,1.0,4.668734285459024,214.19081465281573,-3.618320610687023,-0.22900763358778625,-2.0763358778625953,-0.28785607196401797,0.29235382308845576,-0.33433283358320837,1274.7252747252746,96.97382535452486,34.1644436493516,
1771001782517.4766,0.41304347826086957,-5.760869565217392,-0.45652173913043476,-1.9724715739078396,-9.16816277678037,-3.054458408138839,4029.304029304029,1782.4175824175823,1.0,4.668734285459024,214.19081465281573,-3.5572519083969465,-0.32061068702290074,-1.8778625954198473,-0.2893553223388306,0.2638680659670165,-0.3268365817091454,1274.7252747252746,96.98812580245976,34.1644436493516,
1771001782537.0083,0.41304347826086957,-5.739130434782608,-0.45652173913043476,-1.9676840215439857,-9.223219628964692,-3.0089766606822264,4026.373626373626,1785.3479853479853,1.0,4.668734285459024,214.19081465281573,-3.2519083969465647,-0.0916030534351145,-1.5725190839694656,-0.29385307346326833,0.2833583208395802,-0.35082458770614694,1275.4578754578754,96.9852657072276,34.1644436493516,
1771001782556.5403,0.42391304347826086,-5.739130434782608,-0.5,-1.9796529024536205,-9.211250748055056,-3.0903650508677436,4014.6520146520143,1768.4981684981683,1.0,4.663629053872956,214.42528735632183,-3.1908396946564883,-0.48854961832061067,-1.7099236641221374,-0.2773613193403298,0.27586206896551724,-0.3448275862068965,1259.3406593406592,96.97382535452486,34.1644436493516,
1771001782576.0725,0.44565217391304346,-5.717391304347826,-0.5217391304347826,-1.9676840215439857,-9.16098144823459,-3.076002393776182,4002.9304029304026,1745.054945054945,1.0,4.668734285459024,214.19081465281573,-3.2213740458015265,0.7938931297709924,-1.6793893129770991,-0.29385307346326833,0.27586206896551724,-0.34632683658170915,1246.153846153846,96.97954552523105,34.1644436493516,
1771001782595.6045,0.42391304347826086,-5.739130434782608,-0.5,-1.9389587073608616,-9.139437462597247,-3.054458408138839,4026.373626373626,1775.8241758241757,1.0,4.668734285459024,214.19081465281573,-3.5267175572519083,2.0,-1.2671755725190839,-0.28785607196401797,0.26836581709145424,-0.3313343328335832,1239.5604395604396,96.97668543846665,34.1644436493516,
1771001782615.1365,0.44565217391304346,-5.706521739130435,-0.45652173913043476,-1.9245960502692998,-9.139437462597247,-3.032914422501496,4027.8388278388275,1789.7435897435896,1.0,4.668734285459024,214.19081465281573,-4.183206106870228,1.282442748091603,-1.2366412213740459,-0.29385307346326833,0.2623688155922039,-0.328335832083958,1241.0256410256409,96.98812580245976,34.1644436493516,
1771001782634.6685,0.3913043478260869,-5.760869565217392,-0.41304347826086957,-1.9485338120885696,-9.16098144823459,-2.9802513464991023,4008.7912087912086,1760.4395604395604,1.0,4.668734285459024,214.19081465281573,-4.091603053435114,0.12213740458015267,-1.0381679389312977,-0.28785607196401797,0.2908545727136432,-0.3373313343328336,1244.6886446886447,96.97954552523105,34.1644436493516,
1771001782654.2004,0.42391304347826086,-5.75,-0.40217391304347827,-1.9700777977259125,-9.182525433871932,-2.994614003590664,4002.9304029304026,1742.8571428571427,1.0,4.668734285459024,214.19081465281573,-3.282442748091603,-2.610687022900763,-1.7557251908396947,-0.29535232383808097,0.2608695652173913,-0.35082458770614694,1252.014652014652,96.9852657072276,34.1644436493516,
1771001782673.7322,0.43478260869565216,-5.793478260869565,-0.5217391304347826,-1.9413524835427887,-9.170556552962298,-3.080789946140036,4027.8388278388275,1780.9523809523807,1.0,4.668734285459024,214.19081465281573,-2.381679389312977,-3.83206106870229,-2.5038167938931295,-0.28785607196401797,0.29235382308845576,-0.3328335832083958,1278.3882783882782,96.97668543846665,34.1644436493516,
1771001782693.2642,0.41304347826086957,-5.728260869565217,-0.46739130434782605,-1.9557151406343507,-9.165769000598443,-3.03770197486535,4026.373626373626,1784.6153846153845,1.0,4.668734285459024,214.19081465281573,-2.748091603053435,-3.480916030534351,-2.2900763358778624,-0.2833583208395802,0.27436281859070466,-0.3373313343328336,1362.6373626373625,96.97954552523105,34.1644436493516,
1771001782712.796,0.40217391304347827,-5.706521739130435,-0.43478260869565216,-1.9892280071813284,-9.149012567324954,-3.0281268701376423,4013.1868131868127,1773.6263736263736,1.0,4.668734285459024,214.19081465281573,-3.1908396946564883,-2.030534351145038,-2.259541984732824,-0.2908545727136432,0.2638680659670165,-0.3373313343328336,1493.040293040293,96.97668543846665,34.1644436493516,
1771001782732.328,0.44565217391304346,-5.663043478260869,-0.43478260869565216,-1.9485338120885696,-9.110712148414123,-3.068821065230401,4026.373626373626,1783.8827838827838,1.0,4.668734285459024,214.19081465281573,-3.9541984732824424,-1.6030534351145038,-1.2671755725190839,-0.29385307346326833,0.27436281859070466,-0.3448275862068965,1644.6886446886447,96.97954552523105,34.1644436493516,
1771001782751.86,0.30434782608695654,-5.83695652173913,-0.43478260869565216,-2.080191502094554,-9.261520047875523,-2.975463794135248,4029.304029304029,1794.139194139194,1.0,4.668734285459024,214.19081465281573,-4.748091603053435,0.0916030534351145,-0.8549618320610687,-0.29385307346326833,0.272863568215892,-0.3313343328335832,1773.6263736263736,96.97954552523105,34.1644436493516,
1771001782771.392,0.41304347826086957,-5.771739130434782,-0.3913043478260869,-1.9724715739078396,-9.218432076600838,-2.951526032315978,4027.8388278388275,1795.6043956043954,1.0,4.668734285459024,214.19081465281573,-3.5877862595419847,-0.5801526717557252,-0.9007633587786259,-0.2848575712143928,0.27136431784107945,-0.328335832083958,1842.4908424908424,96.97096527340565,34.1644436493516,
1771001782790.924,0.42391304347826086,-5.793478260869565,-0.3913043478260869,-1.9485338120885696,-9.268701376421305,-2.98982645122681,4008.7912087912086,1761.9047619047617,1.0,4.668734285459024,214.19081465281573,-4.091603053435114,-0.5038167938931297,-1.0076335877862594,-0.28785607196401797,0.2893553223388306,-0.34632683658170915,1841.0256410256409,96.9852657072276,34.1644436493516,
1771001782810.456,0.44565217391304346,-5.760869565217392,-0.42391304347826086,-1.9222022740873728,-9.115499700777978,-2.987432675044883,4001.465201465201,1747.985347985348,1.0,4.668734285459024,214.19081465281573,-3.5267175572519083,-0.42748091603053434,-0.48854961832061067,-0.28785607196401797,0.29235382308845576,-0.3538230884557721,1780.9523809523807,96.97668543846665,34.1644436493516,
1771001782829.988,0.40217391304347827,-5.728260869565217,-0.41304347826086957,-1.9772591262716936,-9.182525433871932,-3.011370436864153,4029.304029304029,1783.8827838827838,1.0,4.668734285459024,214.19081465281573,-3.9847328244274807,-0.6717557251908397,-1.3129770992366412,-0.2983508245877061,0.26836581709145424,-0.335832083958021,1690.10989010989,96.97668543846665,34.1644436493516,
1771001782849.52,0.43478260869565216,-5.782608695652174,-0.41304347826086957,-1.9365649311789348,-9.204069419509276,-3.0161579892280073,4027.8388278388275,1791.9413919413919,1.0,4.668734285459024,214.19081465281573,-4.1679389312977095,-1.5267175572519083,-1.2671755725190839,-0.2908545727136432,0.2638680659670165,-0.3328335832083958,1592.6739926739926,96.98812580245976,34.1644436493516,
1771001782869.052,0.41304347826086957,-5.782608695652174,-0.44565217391304346,-1.9700777977259125,-9.16816277678037,-2.9850388988629564,4011.721611721611,1768.4981684981683,1.0,4.668734285459024,214.19081465281573,-4.183206106870228,-2.5801526717557253,-2.16793893129771,-0.29535232383808097,0.2653673163418291,-0.3373313343328336,1503.2967032967033,96.9852657072276,34.1644436493516,
1771001782888.584,0.3804347826086956,-5.815217391304348,-0.3804347826086956,-2.0011968880909636,-9.242369838420107,-2.9443447037701973,4004.395604395604,1751.6483516483515,1.0,4.668734285459024,214.19081465281573,-4.2748091603053435,-2.6717557251908395,-2.610687022900763,-0.2908545727136432,0.27136431784107945,-0.33883058470764615,1430.7692307692307,96.97668543846665,34.1644436493516,
1771001782908.116,0.3695652173913043,-5.826086956521739,-0.5,-1.9916217833632555,-9.249551166965889,-3.073608617594255,4001.465201465201,1745.054945054945,1.0,4.668734285459024,214.19081465281573,-4.793893129770992,-3.0076335877862594,-2.549618320610687,-0.2863568215892054,0.27586206896551724,-0.3448275862068965,1368.4981684981683,96.97382535452486,34.1644436493516,
1771001782927.648,0.40217391304347827,-5.771739130434782,-0.43478260869565216,-1.9916217833632555,-9.259126271693596,-3.018551765409934,4029.304029304029,1782.4175824175823,1.0,4.668734285459024,214.19081465281573,-3.7557251908396947,-4.259541984732825,-2.8091603053435112,-0.28785607196401797,0.2833583208395802,-0.33883058470764615,1335.5311355311355,96.9852657072276,34.1644436493516,
1771001782947.18,0.5,-5.684782608695652,-0.40217391304347827,-1.9652902453620587,-9.218432076600838,-3.0281268701376423,4008.7912087912086,1758.2417582417581,1.0,4.668734285459024,214.19081465281573,-3.847328244274809,-2.916030534351145,-2.519083969465649,-0.2893553223388306,0.29385307346326833,-0.34182908545727136,1344.3223443223442,96.97954552523105,34.1644436493516,
1771001782966.712,0.34782608695652173,-5.793478260869565,-0.44565217391304346,-2.0035906642728905,-9.261520047875523,-3.044883303411131,4001.465201465201,1747.2527472527472,1.0,4.668734285459024,214.19081465281573,-4.793893129770992,-1.3740458015267174,-2.015267175572519,-0.2893553223388306,0.2893553223388306,-0.34632683658170915,1380.952380952381,96.96810519510903,34.1644436493516,
1771001782986.244,0.44565217391304346,-5.804347826086956,-0.46739130434782605,-1.9628964691801316,-9.187312986235787,-3.0089766606822264,4029.304029304029,1783.8827838827838,1.0,4.668734285459024,214.19081465281573,-4.366412213740458,-2.183206106870229,-2.229007633587786,-0.28785607196401797,0.26686656671664166,-0.33883058470764615,1417.5824175824175,96.97668543846665,34.1644436493516,
1771001783005.776,0.40217391304347827,-5.771739130434782,-0.46739130434782605,-1.9628964691801316,-9.220825852782765,-3.032914422501496,4029.304029304029,1793.4065934065932,1.0,4.673839517045092,213.95685417804478,-4.778625954198473,-0.8244274809160305,-2.687022900763359,-0.2863568215892054,0.25487256371814093,-0.32533733133433285,1449.8168498168498,96.97954552523105,34.1644436493516,
1771001783025.308,0.3913043478260869,-5.793478260869565,-0.44565217391304346,-1.9868342309994016,-9.204069419509276,-3.035308198683423,4010.25641025641,1767.7655677655675,1.0,4.668734285459024,214.19081465281573,-4.687022900763359,-1.3282442748091603,-2.5038167938931295,-0.28785607196401797,0.2698650674662669,-0.3493253373313343,1465.201465201465,96.9852657072276,34.1644436493516,
1771001783044.8398,0.41304347826086957,-5.782608695652174,-0.46739130434782605,-1.9485338120885696,-9.213644524236983,-3.018551765409934,4005.8608058608056,1753.113553113553,1.0,4.673839517045092,213.95685417804478,-5.083969465648854,-1.3282442748091603,-2.916030534351145,-0.29235382308845576,0.2608695652173913,-0.35082458770614694,1450.5494505494505,96.97668543846665,34.1644436493516,
1771001783064.3718,0.44565217391304346,-5.782608695652174,-0.4782608695652174,-1.9437462597247157,-9.196888090963494,-3.049670855774985,3999.9999999999995,1738.4615384615383,1.0,4.673839517045092,213.95685417804478,-5.32824427480916,-1.6793893129770991,-2.763358778625954,-0.28785607196401797,0.2773613193403298,-0.33433283358320837,1417.5824175824175,96.97668543846665,34.1644436493516,
1771001783083.9036,0.43478260869565216,-5.771739130434782,-0.45652173913043476,-1.9581089168162775,-9.196888090963494,-3.040095751047277,4029.304029304029,1780.9523809523807,1.0,4.673839517045092,213.95685417804478,-5.358778625954198,-1.4198473282442747,-2.748091603053435,-0.2908545727136432,0.2908545727136432,-0.3298350824587706,1380.2197802197802,96.98812580245976,34.1644436493516,
1771001783103.4355,0.43478260869565216,-5.793478260869565,-0.4782608695652174,-1.9533213644524237,-9.20885697187313,-3.0831837223219627,4008.7912087912086,1758.2417582417581,1.0,4.673839517045092,213.95685417804478,-5.404580152671755,-1.0534351145038168,-2.717557251908397,-0.29235382308845576,0.26836581709145424,-0.3403298350824588,1342.1245421245421,96.97954552523105,34.1644436493516,
1771001783122.9675,0.44565217391304346,-5.826086956521739,-0.46739130434782605,-1.9293836026331537,-9.22561340514662,-3.042489527229204,4029.304029304029,1786.080586080586,1.0,4.673839517045092,213.95685417804478,-5.465648854961832,-0.015267175572519083,-2.900763358778626,-0.2893553223388306,0.25337331334332835,-0.3298350824587706,1309.1575091575091,96.9852657072276,34.1644436493516,
1771001783142.4995,0.43478260869565216,-5.793478260869565,-0.46739130434782605,-1.9365649311789348,-9.254338719329743,-3.042489527229204,4029.304029304029,1794.139194139194,1.0,4.673839517045092,213.95685417804478,-6.091603053435114,0.8854961832061068,-2.748091603053435,-0.2908545727136432,0.2818590704647676,-0.34782608695652173,1266.6666666666665,96.97668543846665,34.1644436493516,
1771001783162.0315,0.41304347826086957,-5.760869565217392,-0.46739130434782605,-1.9724715739078396,-9.204069419509276,-3.054458408138839,4026.373626373626,1789.0109890109889,1.0,4.673839517045092,213.95685417804478,-6.244274809160305,1.450381679389313,-2.4885496183206106,-0.29385307346326833,0.27436281859070466,-0.3328335832083958,1230.7692307692307,96.97954552523105,34.1644436493516,
1771001783181.5637,0.41304347826086957,-5.739130434782608,-0.46739130434782605,-1.9533213644524237,-9.182525433871932,-3.0281268701376423,4027.8388278388275,1793.4065934065932,1.0,4.678944748631159,213.72340425531914,-6.229007633587786,1.465648854961832,-2.213740458015267,-0.29235382308845576,0.2638680659670165,-0.34182908545727136,1213.9194139194137,96.97668543846665,34.1644436493516,
1771001783201.0957,0.42391304347826086,-5.760869565217392,-0.46739130434782605,-1.9102333931777378,-9.206463195691203,-3.040095751047277,4027.8388278388275,1794.8717948717947,1.0,4.678944748631159,213.72340425531914,-6.366412213740458,1.2366412213740459,-2.4885496183206106,-0.2863568215892054,0.2773613193403298,-0.3403298350824588,1202.197802197802,96.9852657072276,34.1644436493516,
1771001783220.6274,0.41304347826086957,-5.728260869565217,-0.45652173913043476,-1.9676840215439857,-9.12986235786954,-3.0712148414123277,4027.8388278388275,1795.6043956043954,1.0,4.678944748631159,213.72340425531914,-6.076335877862595,1.3129770992366412,-2.595419847328244,-0.2893553223388306,0.2788605697151424,-0.3448275862068965,1172.161172161172,96.97668543846665,34.1644436493516,
1771001783240.1594,0.42391304347826086,-5.760869565217392,-0.45652173913043476,-1.9652902453620587,-9.180131657690005,-3.006582884500299,4026.373626373626,1789.0109890109889,1.0,4.678944748631159,213.72340425531914,-6.183206106870228,0.38167938931297707,-3.0229007633587783,-0.2908545727136432,0.27136431784107945,-0.33883058470764615,1139.9267399267399,96.9852657072276,34.1644436493516,
1771001783259.6914,0.3913043478260869,-5.760869565217392,-0.44565217391304346,-2.0035906642728905,-9.134649910233392,-3.023339317773788,4005.8608058608056,1758.974358974359,1.0,4.678944748631159,213.72340425531914,-6.015267175572519,-0.07633587786259542,-2.4732824427480917,-0.29535232383808097,0.2893553223388306,-0.3373313343328336,1108.4249084249084,96.97668543846665,34.1644436493516,
1771001783279.2234,0.41304347826086957,-5.75,-0.43478260869565216,-1.9724715739078396,-9.201675643327349,-3.01376421304608,4027.8388278388275,1785.3479853479853,1.0,4.684049980217227,213.49046321525884,-5.694656488549618,-0.916030534351145,-2.9618320610687023,-0.29235382308845576,0.2908545727136432,-0.335832083958021,1084.2490842490843,96.97747737697567,34.169468821916965,
1771001783298.7554,0.3913043478260869,-5.771739130434782,-0.42391304347826086,-1.9844404548174746,-9.180131657690005,-3.01376421304608,4027.8388278388275,1792.6739926739926,1.0,4.684049980217227,213.49046321525884,-5.49618320610687,-0.7786259541984732,-3.236641221374046,-0.2983508245877061,0.2563718140929535,-0.33433283358320837,1079.120879120879,96.98033748689382,34.169468821916965,
1771001783318.2874,0.3913043478260869,-5.739130434782608,-0.45652173913043476,-1.9772591262716936,-9.134649910233392,-3.025733093955715,4024.9084249084244,1792.6739926739926,1.0,4.684049980217227,213.49046321525884,-5.022900763358779,0.9007633587786259,-2.7938931297709924,-0.29535232383808097,0.2563718140929535,-0.3403298350824588,1092.3076923076922,96.98605771519803,34.169468821916965,
1771001783337.819,0.3913043478260869,-5.728260869565217,-0.45652173913043476,-2.0035906642728905,-9.158587672052663,-3.0161579892280073,4007.326007326007,1766.3003663003662,1.0,4.684049980217227,213.49046321525884,-5.740458015267175,-0.5038167938931297,-2.916030534351145,-0.2848575712143928,0.27436281859070466,-0.34782608695652173,1123.076923076923,96.98033748689382,34.169468821916965,
1771001783357.3513,0.42391304347826086,-5.739130434782608,-0.43478260869565216,-1.9940155595451825,-9.117893476959903,-3.011370436864153,4008.7912087912086,1753.8461538461538,1.0,4.684049980217227,213.49046321525884,-4.99236641221374,-0.8091603053435115,-2.3053435114503817,-0.2848575712143928,0.2698650674662669,-0.34782608695652173,1159.7069597069597,96.98319759963461,34.169468821916965,
1771001783376.8833,0.43478260869565216,-5.728260869565217,-0.45652173913043476,-1.9413524835427887,-9.153800119688809,-3.0041891083183723,4027.8388278388275,1783.8827838827838,1.0,4.684049980217227,213.49046321525884,-5.0534351145038165,0.061068702290076333,-2.33587786259542,-0.2908545727136432,0.280359820089955,-0.34332833583208394,1206.5934065934066,96.98033748689382,34.169468821916965,
1771001783396.4153,0.3913043478260869,-5.695652173913043,-0.4782608695652174,-1.9964093357271095,-9.134649910233392,-3.032914422501496,4029.304029304029,1794.139194139194,1.0,4.689155211803296,213.25802939575394,-4.793893129770992,0.8091603053435115,-1.4198473282442747,-0.2863568215892054,0.28785607196401797,-0.3373313343328336,1244.6886446886447,96.97747737697567,34.169468821916965,
1771001783415.9473,0.40217391304347827,-5.771739130434782,-0.4782608695652174,-1.9676840215439857,-9.182525433871932,-3.032914422501496,4005.8608058608056,1759.7069597069597,1.0,4.689155211803296,213.25802939575394,-4.809160305343512,0.3511450381679389,-2.030534351145038,-0.28785607196401797,0.29535232383808097,-0.3373313343328336,1268.131868131868,96.98891783358408,34.169468821916965,
1771001783435.4792,0.40217391304347827,-5.728260869565217,-0.4782608695652174,-1.9940155595451825,-9.146618791143029,-3.03770197486535,4029.304029304029,1786.8131868131868,1.0,4.689155211803296,213.25802939575394,-4.381679389312977,-1.465648854961832,-1.450381679389313,-0.2893553223388306,0.2623688155922039,-0.3403298350824588,1285.7142857142856,96.97461726988017,34.169468821916965,
1771001783455.0112,0.5652173913043478,-5.858695652173913,-0.45652173913043476,-1.9437462597247157,-9.151406343506881,-3.044883303411131,4027.8388278388275,1793.4065934065932,1.0,4.689155211803296,213.25802939575394,-4.351145038167939,-2.198473282442748,-2.519083969465649,-0.29385307346326833,0.2848575712143928,-0.3373313343328336,1299.6336996336995,96.98033748689382,34.169468821916965,
1771001783474.5432,0.2934782608695652,-5.608695652173913,-0.5,-1.9844404548174746,-9.077199281867145,-3.0592459605026927,4029.304029304029,1795.6043956043954,1.0,4.694260443389363,213.02610114192495,-3.2519083969465647,-1.1908396946564885,-1.1755725190839694,-0.2863568215892054,0.2638680659670165,-0.3268365817091454,1347.985347985348,96.98605771519803,34.169468821916965,
1771001783494.0752,0.46739130434782605,-5.75,-0.5,-1.9317773788150807,-9.187312986235787,-3.066427289048474,4029.304029304029,1797.8021978021977,1.0,4.694260443389363,213.02610114192495,-4.381679389312977,-1.5267175572519083,-2.8091603053435112,-0.2908545727136432,0.2788605697151424,-0.335832083958021,1438.8278388278388,96.97747737697567,34.169468821916965,
1771001783513.607,0.42391304347826086,-5.739130434782608,-0.4891304347826087,-1.9533213644524237,-9.134649910233392,-3.068821065230401,4011.721611721611,1777.2893772893772,1.0,4.699365674975432,212.79467680608363,-4.183206106870228,0.4427480916030534,-2.33587786259542,-0.29685157421289354,0.2698650674662669,-0.335832083958021,1556.7765567765566,96.97747737697567,34.169468821916965,
1771001783533.139,0.41304347826086957,-5.739130434782608,-0.45652173913043476,-1.9868342309994016,-9.180131657690005,-3.044883303411131,4029.304029304029,1791.9413919413919,1.0,4.699365674975432,212.79467680608363,-4.702290076335878,1.9694656488549618,-1.450381679389313,-0.29985007496251875,0.2773613193403298,-0.3313343328335832,1660.8058608058607,96.97747737697567,34.169468821916965,
1771001783552.671,0.40217391304347827,-5.793478260869565,-0.45652173913043476,-1.9700777977259125,-9.18491921005386,-3.06163973668462,4027.8388278388275,1794.139194139194,1.0,4.694260443389363,213.02610114192495,-4.442748091603053,2.16793893129771,-1.0381679389312977,-0.2983508245877061,0.29385307346326833,-0.34182908545727136,1709.8901098901097,96.97461726988017,34.169468821916965,
1771001783572.203,0.41304347826086957,-5.760869565217392,-0.45652173913043476,-1.9461400359066428,-9.17773788150808,-3.025733093955715,4005.8608058608056,1760.4395604395604,1.0,4.699365674975432,212.79467680608363,-4.549618320610687,1.9389312977099236,-1.099236641221374,-0.2863568215892054,0.26836581709145424,-0.34182908545727136,1712.087912087912,96.97461726988017,34.169468821916965,
1771001783591.7349,0.44565217391304346,-5.75,-0.4891304347826087,-1.9293836026331537,-9.170556552962298,-3.03770197486535,4002.9304029304026,1742.8571428571427,1.0,4.699365674975432,212.79467680608363,-3.9541984732824424,2.0,-1.099236641221374,-0.29535232383808097,0.29685157421289354,-0.33883058470764615,1660.8058608058607,96.98605771519803,34.169468821916965,
1771001783611.2668,0.42391304347826086,-5.728260869565217,-0.5,-1.9413524835427887,-9.16098144823459,-3.0592459605026927,4027.8388278388275,1780.9523809523807,1.0,4.704470906561499,212.56375474769396,-3.7557251908396947,1.1908396946564885,-1.2213740458015268,-0.2983508245877061,0.2698650674662669,-0.3328335832083958,1570.6959706959706,96.97747737697567,34.169468821916965,
1771001783630.7988,0.41304347826086957,-5.717391304347826,-0.4891304347826087,-1.9557151406343507,-9.151406343506881,-3.078396169958109,4027.8388278388275,1791.2087912087911,1.0,4.704470906561499,212.56375474769396,-3.49618320610687,0.6717557251908397,-1.3282442748091603,-0.2908545727136432,0.27136431784107945,-0.3493253373313343,1463.7362637362637,96.97461726988017,34.169468821916965,
1771001783650.3308,0.42391304347826086,-5.739130434782608,-0.5,-1.9533213644524237,-9.170556552962298,-3.064033512866547,4029.304029304029,1795.6043956043954,1.0,4.704470906561499,212.56375474769396,-3.450381679389313,0.5190839694656488,-1.4351145038167938,-0.29235382308845576,0.27436281859070466,-0.3313343328335832,1364.8351648351647,96.97747737697567,34.169468821916965,
1771001783669.8628,0.42391304347826086,-5.771739130434782,-0.4891304347826087,-1.9605026929982046,-9.18491921005386,-3.056852184320766,4027.8388278388275,1795.6043956043954,1.0,4.704470906561499,212.56375474769396,-3.7251908396946565,-1.0229007633587786,-1.8625954198473282,-0.29235382308845576,0.2863568215892054,-0.3373313343328336,1289.3772893772893,96.98033748689382,34.169468821916965,
1771001783689.3948,0.41304347826086957,-5.75,-0.5108695652173912,-1.9628964691801316,-9.175344105326152,-3.078396169958109,4001.465201465201,1757.5091575091574,1.0,4.704470906561499,212.56375474769396,-3.709923664122137,0.15267175572519084,-2.0,-0.2983508245877061,0.2623688155922039,-0.328335832083958,1235.164835164835,96.97747737697567,34.169468821916965,
1771001783708.9268,0.40217391304347827,-5.771739130434782,-0.5,-1.9581089168162775,-9.175344105326152,-3.080789946140036,4027.8388278388275,1784.6153846153845,1.0,4.704470906561499,212.56375474769396,-3.801526717557252,1.8473282442748091,-1.083969465648855,-0.2893553223388306,0.29385307346326833,-0.34182908545727136,1216.8498168498168,96.98033748689382,34.169468821916965,
1771001783728.4587,0.43478260869565216,-5.75,-0.4891304347826087,-1.9652902453620587,-9.17773788150808,-3.066427289048474,4005.8608058608056,1757.5091575091574,1.0,4.709576138147567,212.33333333333331,-4.2748091603053435,2.4122137404580153,-1.2213740458015268,-0.29535232383808097,0.28785607196401797,-0.34782608695652173,1238.8278388278388,96.97747737697567,34.169468821916965,
1771001783747.9907,0.43478260869565216,-5.760869565217392,-0.46739130434782605,-1.9557151406343507,-9.16816277678037,-3.040095751047277,4001.465201465201,1746.5201465201465,1.0,4.709576138147567,212.33333333333331,-4.213740458015267,2.015267175572519,-0.7175572519083969,-0.2908545727136432,0.29685157421289354,-0.34182908545727136,1290.8424908424909,96.98891783358408,34.169468821916965,
1771001783767.5227,0.41304347826086957,-5.75,-0.5,-1.9533213644524237,-9.158587672052663,-3.068821065230401,4027.8388278388275,1781.6849816849815,1.0,4.709576138147567,212.33333333333331,-3.969465648854962,1.9083969465648853,-1.083969465648855,-0.2863568215892054,0.2593703148425787,-0.3328335832083958,1339.194139194139,96.98033748689382,34.169468821916965,
1771001783787.0547,0.44565217391304346,-5.75,-0.4782608695652174,-1.9437462597247157,-9.189706762417714,-3.052064631956912,4026.373626373626,1785.3479853479853,1.0,4.7146813697336345,212.10341093665403,-3.7557251908396947,1.8778625954198473,-1.2061068702290076,-0.2983508245877061,0.27136431784107945,-0.3373313343328336,1375.091575091575,96.98605771519803,34.169468821916965,
1771001783806.587,0.44565217391304346,-5.771739130434782,-0.4891304347826087,-1.9389587073608616,-9.170556552962298,-3.052064631956912,4005.8608058608056,1757.5091575091574,1.0,4.7146813697336345,212.10341093665403,-3.8931297709923665,1.2671755725190839,-1.2213740458015268,-0.2848575712143928,0.2698650674662669,-0.34332833583208394,1394.139194139194,96.97747737697567,34.169468821916965,
1771001783826.119,0.44565217391304346,-5.75,-0.44565217391304346,-1.9509275882704966,-9.182525433871932,-3.032914422501496,4027.8388278388275,1785.3479853479853,1.0,4.7146813697336345,212.10341093665403,-3.969465648854962,0.7633587786259541,-1.4045801526717556,-0.29235382308845576,0.27586206896551724,-0.3448275862068965,1397.069597069597,96.97747737697567,34.169468821916965,
1771001783845.6506,0.41304347826086957,-5.760869565217392,-0.44565217391304346,-1.9389587073608616,-9.189706762417714,-3.030520646319569,4027.8388278388275,1792.6739926739926,1.0,4.7146813697336345,212.10341093665403,-3.8167938931297707,0.48854961832061067,-1.282442748091603,-0.2908545727136432,0.2698650674662669,-0.33433283358320837,1386.080586080586,96.98319759963461,34.169468821916965,
1771001783865.1826,0.41304347826086957,-5.760869565217392,-0.46739130434782605,-1.9389587073608616,-9.16816277678037,-3.0592459605026927,4029.304029304029,1796.3369963369962,1.0,4.7146813697336345,212.10341093665403,-3.7404580152671754,0.0916030534351145,-1.816793893129771,-0.2983508245877061,0.26686656671664166,-0.3328335832083958,1362.6373626373625,96.98033748689382,34.169468821916965,
1771001783884.7146,0.44565217391304346,-5.739130434782608,-0.5108695652173912,-1.9317773788150807,-9.172950329144225,-3.0712148414123277,4004.395604395604,1759.7069597069597,1.0,4.7197866013197025,211.87398593834504,-4.045801526717557,0.0916030534351145,-1.7099236641221374,-0.2893553223388306,0.2833583208395802,-0.328335832083958,1334.7985347985348,96.98605771519803,34.169468821916965,
1771001783904.2466,0.42391304347826086,-5.760869565217392,-0.5,-1.9509275882704966,-9.172950329144225,-3.087971274685817,4001.465201465201,1747.2527472527472,1.0,4.7197866013197025,211.87398593834504,-3.83206106870229,0.015267175572519083,-1.9541984732824427,-0.2848575712143928,0.2623688155922039,-0.3403298350824588,1314.2857142857142,96.98033748689382,34.169468821916965,
1771001783923.7783,0.44565217391304346,-5.771739130434782,-0.5108695652173912,-1.9557151406343507,-9.170556552962298,-3.076002393776182,4027.8388278388275,1782.4175824175823,1.0,4.7197866013197025,211.87398593834504,-4.030534351145038,0.04580152671755725,-1.9083969465648853,-0.2863568215892054,0.2773613193403298,-0.3328335832083958,1302.5641025641025,96.98319759963461,34.169468821916965,
1771001783943.3103,0.44565217391304346,-5.739130434782608,-0.4891304347826087,-1.9341711549970078,-9.180131657690005,-3.044883303411131,4026.373626373626,1785.3479853479853,1.0,4.7248918329057705,211.645056726094,-4.519083969465648,0.5190839694656488,-1.8015267175572518,-0.2908545727136432,0.27586206896551724,-0.33433283358320837,1278.3882783882782,96.97747737697567,34.169468821916965,
1771001783962.8423,0.41304347826086957,-5.771739130434782,-0.4891304347826087,-1.9509275882704966,-9.201675643327349,-3.0831837223219627,4002.9304029304026,1749.4505494505493,1.0,4.7248918329057705,211.645056726094,-4.213740458015267,0.6564885496183206,-1.5267175572519083,-0.29235382308845576,0.26686656671664166,-0.3328335832083958,1253.4798534798533,96.98033748689382,34.169468821916965,
1771001783982.3745,0.43478260869565216,-5.739130434782608,-0.5108695652173912,-1.9605026929982046,-9.158587672052663,-3.064033512866547,4016.117216117216,1764.8351648351647,1.0,4.7248918329057705,211.645056726094,-4.106870229007633,0.7938931297709924,-1.4045801526717556,-0.28785607196401797,0.2788605697151424,-0.34332833583208394,1243.2234432234432,96.98033748689382,34.169468821916965,
1771001784001.9062,0.44565217391304346,-5.75,-0.4891304347826087,-1.9461400359066428,-9.158587672052663,-3.052064631956912,4019.047619047619,1776.5567765567764,1.0,4.7248918329057705,211.645056726094,-4.183206106870228,0.8396946564885496,-1.8778625954198473,-0.2863568215892054,0.2773613193403298,-0.335832083958021,1249.084249084249,96.98605771519803,34.169468821916965,
1771001784021.4382,0.43478260869565216,-5.728260869565217,-0.4891304347826087,-1.9581089168162775,-9.16098144823459,-3.035308198683423,4027.8388278388275,1790.4761904761904,1.0,4.7248918329057705,211.645056726094,-3.9083969465648853,0.38167938931297707,-1.618320610687023,-0.2893553223388306,0.280359820089955,-0.33433283358320837,1271.062271062271,96.98319759963461,34.169468821916965,
1771001784040.9702,0.42391304347826086,-5.728260869565217,-0.46739130434782605,-1.9245960502692998,-9.132256134051467,-3.0831837223219627,4004.395604395604,1758.2417582417581,1.0,4.7248918329057705,211.645056726094,-4.519083969465648,0.8702290076335878,-2.091603053435114,-0.2893553223388306,0.2893553223388306,-0.34782608695652173,1282.051282051282,96.98319759963461,34.169468821916965,
1771001784060.5022,0.41304347826086957,-5.728260869565217,-0.4782608695652174,-1.9605026929982046,-9.180131657690005,-3.0592459605026927,4001.465201465201,1747.2527472527472,1.0,4.729997064491838,211.41662169454938,-3.7709923664122136,1.2366412213740459,-2.3053435114503817,-0.28785607196401797,0.2773613193403298,-0.3493253373313343,1273.260073260073,96.97747737697567,34.169468821916965,
1771001784080.0342,0.42391304347826086,-5.815217391304348,-0.4782608695652174,-1.9533213644524237,-9.237582286056254,-3.066427289048474,4027.8388278388275,1782.4175824175823,1.0,4.7248918329057705,211.645056726094,-4.396946564885496,0.6870229007633587,-2.427480916030534,-0.29385307346326833,0.27136431784107945,-0.34332833583208394,1254.9450549450548,96.97747737697567,34.169468821916965,
1771001784099.5662,0.40217391304347827,-5.739130434782608,-0.4782608695652174,-1.9724715739078396,-9.175344105326152,-3.080789946140036,4027.8388278388275,1791.2087912087911,1.0,4.729997064491838,211.41662169454938,-4.106870229007633,1.3435114503816794,-2.1221374045801524,-0.2848575712143928,0.27136431784107945,-0.3448275862068965,1250.5494505494505,96.98605771519803,34.169468821916965,
1771001784119.098,0.43478260869565216,-5.717391304347826,-0.5217391304347826,-1.9341711549970078,-9.156193895870736,-3.097546379413525,4029.304029304029,1795.6043956043954,1.0,4.729997064491838,211.41662169454938,-3.679389312977099,2.396946564885496,-1.5572519083969465,-0.28785607196401797,0.2698650674662669,-0.32533733133433285,1257.8754578754579,96.98319759963461,34.169468821916965,
1771001784138.63,0.44565217391304346,-5.717391304347826,-0.4782608695652174,-1.9365649311789348,-9.149012567324954,-3.078396169958109,4019.047619047619,1785.3479853479853,1.0,4.729997064491838,211.41662169454938,-3.4045801526717554,2.549618320610687,-1.282442748091603,-0.3028485757121439,0.2863568215892054,-0.34632683658170915,1279.8534798534797,96.97747737697567,34.169468821916965,
1771001784158.162,0.4782608695652174,-5.706521739130435,-0.4891304347826087,-1.9341711549970078,-9.139437462597247,-3.066427289048474,3999.9999999999995,1748.7179487179485,1.0,4.735102296077907,211.188679245283,-3.0229007633587783,2.091603053435114,-1.114503816793893,-0.2848575712143928,0.26686656671664166,-0.34632683658170915,1289.3772893772893,96.98033748689382,34.169468821916965,
1771001784177.694,0.44565217391304346,-5.75,-0.4782608695652174,-1.9365649311789348,-9.149012567324954,-3.032914422501496,4027.8388278388275,1782.4175824175823,1.0,4.735102296077907,211.188679245283,-3.6030534351145036,1.5877862595419847,-1.450381679389313,-0.29385307346326833,0.2833583208395802,-0.35082458770614694,1277.6556776556777,96.98605771519803,34.169468821916965,
1771001784197.226,0.44565217391304346,-5.760869565217392,-0.43478260869565216,-1.9413524835427887,-9.17773788150808,-3.035308198683423,4005.8608058608056,1756.7765567765566,1.0,4.735102296077907,211.188679245283,-2.8244274809160306,0.21374045801526717,-1.83206106870229,-0.3028485757121439,0.27586206896551724,-0.335832083958021,1274.7252747252746,96.98033748689382,34.169468821916965,
1771001784216.758,0.46739130434782605,-5.771739130434782,-0.5434782608695652,-1.917414721723519,-9.16098144823459,-3.042489527229204,4030.7692307692305,1792.6739926739926,1.0,4.735102296077907,211.188679245283,-2.564885496183206,-0.48854961832061067,-2.2900763358778624,-0.29535232383808097,0.2578710644677661,-0.3313343328335832,1284.9816849816848,96.98605771519803,34.169468821916965,
1771001784236.29,0.44565217391304346,-5.739130434782608,-0.4891304347826087,-1.9102333931777378,-9.21603830041891,-3.08557749850389,4029.304029304029,1795.6043956043954,1.0,4.735102296077907,211.188679245283,-2.183206106870229,0.549618320610687,-2.259541984732824,-0.29385307346326833,0.2698650674662669,-0.3403298350824588,1328.2051282051282,96.98891783358408,34.169468821916965,
1771001784255.822,0.43478260869565216,-5.793478260869565,-0.532608695652174,-1.9341711549970078,-9.077199281867145,-3.092758827049671,4026.373626373626,1789.7435897435896,1.0,4.735102296077907,211.188679245283,-3.2671755725190836,1.83206106870229,-2.519083969465649,-0.2908545727136432,0.26836581709145424,-0.3493253373313343,1394.8717948717947,96.98605771519803,34.169468821916965,
1771001784275.354,0.40217391304347827,-5.673913043478261,-0.5434782608695652,-1.9676840215439857,-9.182525433871932,-3.1071214841412327,4029.304029304029,1795.6043956043954,1.0,4.740207527663974,210.96122778675283,-3.66412213740458,2.183206106870229,-1.7404580152671756,-0.2983508245877061,0.2848575712143928,-0.3328335832083958,1499.6336996336995,96.98368169853151,34.15439330509398,
1771001784294.886,0.41304347826086957,-5.782608695652174,-0.4782608695652174,-1.9652902453620587,-9.242369838420107,-3.0903650508677436,4023.4432234432234,1787.5457875457873,1.0,4.740207527663974,210.96122778675283,-3.6488549618320607,2.091603053435114,-1.5114503816793892,-0.2893553223388306,0.2698650674662669,-0.3298350824587706,1607.3260073260071,96.97224153105851,34.15439330509398,
1771001784314.418,0.46739130434782605,-5.815217391304348,-0.5543478260869565,-1.9533213644524237,-9.165769000598443,-3.1262716935966486,4004.395604395604,1756.7765567765566,1.0,4.740207527663974,210.96122778675283,-4.473282442748092,1.3129770992366412,-1.5267175572519083,-0.2983508245877061,0.2863568215892054,-0.34632683658170915,1675.4578754578754,96.98654174745602,34.15439330509398,
1771001784333.9497,0.45652173913043476,-5.75,-0.5217391304347826,-1.8982645122681028,-9.22561340514662,-3.0903650508677436,4030.7692307692305,1791.9413919413919,1.0,4.740207527663974,210.96122778675283,-4.427480916030534,1.618320610687023,-1.6335877862595418,-0.28785607196401797,0.2893553223388306,-0.34782608695652173,1691.5750915750914,96.98368169853151,34.15439330509398,
1771001784353.4817,0.46739130434782605,-5.760869565217392,-0.4782608695652174,-1.9030520646319569,-9.180131657690005,-3.06163973668462,4008.7912087912086,1760.4395604395604,1.0,4.740207527663974,210.96122778675283,-4.793893129770992,2.4885496183206106,-1.4961832061068703,-0.29385307346326833,0.280359820089955,-0.34182908545727136,1657.142857142857,96.98654174745602,34.15439330509398,
1771001784373.0137,0.46739130434782605,-5.717391304347826,-0.5108695652173912,-1.874326750448833,-9.165769000598443,-3.068821065230401,4005.8608058608056,1750.9157509157508,1.0,4.745312759250041,210.73426573426573,-5.374045801526718,2.0,-1.5877862595419847,-0.29235382308845576,0.2818590704647676,-0.335832083958021,1588.278388278388,96.98368169853151,34.15439330509398,
1771001784392.5457,0.44565217391304346,-5.739130434782608,-0.45652173913043476,-1.9293836026331537,-9.151406343506881,-3.042489527229204,4032.234432234432,1785.3479853479853,1.0,4.740207527663974,210.96122778675283,-5.068702290076335,1.5114503816793892,-2.2748091603053435,-0.28785607196401797,0.26836581709145424,-0.3313343328335832,1493.040293040293,96.98368169853151,34.15439330509398,
1771001784412.0776,0.4891304347826087,-5.782608695652174,-0.44565217391304346,-1.9341711549970078,-9.153800119688809,-3.03770197486535,4029.304029304029,1793.4065934065932,1.0,4.740207527663974,210.96122778675283,-5.221374045801526,-0.24427480916030533,-2.610687022900763,-0.2893553223388306,0.2773613193403298,-0.35082458770614694,1391.2087912087911,96.98654174745602,34.15439330509398,
1771001784451.05,0.43478260869565216,-5.739130434782608,-0.4891304347826087,-1.9557151406343507,-9.194494314781569,-3.040095751047277,4007.326007326007,1756.7765567765566,1.0,4.745312759250041,210.73426573426573,-3.877862595419847,-1.8778625954198473,-3.099236641221374,-0.29685157421289354,0.29235382308845576,-0.3403298350824588,1265.2014652014652,96.98654174745602,34.15439330509398,
1771001784470.6736,0.4891304347826087,-5.739130434782608,-0.4891304347826087,-1.9198084979054457,-9.180131657690005,-3.08557749850389,4002.9304029304026,1742.124542124542,1.0,4.745312759250041,210.73426573426573,-4.427480916030534,-1.6030534351145038,-2.687022900763359,-0.29235382308845576,0.29235382308845576,-0.33883058470764615,1267.3992673992673,96.975101568693,34.15439330509398,
1771001784490.2056,0.44565217391304346,-5.760869565217392,-0.4891304347826087,-1.9509275882704966,-9.141831238779174,-3.0951526032315977,4029.304029304029,1781.6849816849815,1.0,4.745312759250041,210.73426573426573,-4.778625954198473,0.183206106870229,-2.381679389312977,-0.29535232383808097,0.2893553223388306,-0.3448275862068965,1294.5054945054944,96.98368169853151,34.15439330509398,
1771001784509.7375,0.44565217391304346,-5.728260869565217,-0.5,-1.9317773788150807,-9.170556552962298,-3.076002393776182,4007.326007326007,1756.0439560439559,1.0,4.745312759250041,210.73426573426573,-4.8396946564885495,1.0229007633587786,-1.9236641221374045,-0.2893553223388306,0.280359820089955,-0.33883058470764615,1326.7399267399267,96.9808216524295,34.15439330509398,
1771001784529.2695,0.43478260869565216,-5.771739130434782,-0.4891304347826087,-1.9485338120885696,-9.180131657690005,-3.078396169958109,4004.395604395604,1747.985347985348,1.0,4.745312759250041,210.73426573426573,-4.8396946564885495,1.2671755725190839,-1.9389312977099236,-0.29385307346326833,0.2788605697151424,-0.34182908545727136,1346.5201465201465,96.98368169853151,34.15439330509398,
1771001784548.8015,0.43478260869565216,-5.771739130434782,-0.4891304347826087,-1.9389587073608616,-9.196888090963494,-3.1071214841412327,4030.7692307692305,1789.7435897435896,1.0,4.745312759250041,210.73426573426573,-4.824427480916031,1.4198473282442747,-1.465648854961832,-0.28785607196401797,0.2698650674662669,-0.3403298350824588,1353.8461538461538,96.975101568693,34.15439330509398,
1771001784568.3335,0.4782608695652174,-5.75,-0.5,-1.9389587073608616,-9.192100538599641,-3.078396169958109,4029.304029304029,1794.8717948717947,1.0,4.745312759250041,210.73426573426573,-4.5038167938931295,1.0076335877862594,-1.984732824427481,-0.2893553223388306,0.272863568215892,-0.32533733133433285,1352.3809523809523,96.98654174745602,34.15439330509398,
1771001784626.838,0.46739130434782605,-5.75,-0.4891304347826087,-1.8982645122681028,-9.165769000598443,-3.08557749850389,4004.395604395604,1750.18315018315,1.0,4.745312759250041,210.73426573426573,-4.122137404580153,0.47328244274809156,-2.351145038167939,-0.29385307346326833,0.2908545727136432,-0.335832083958021,1311.3553113553112,96.98654174745602,34.15439330509398,
1771001784646.4614,0.4782608695652174,-5.75,-0.532608695652174,-1.886295631358468,-9.17773788150808,-3.1095152603231595,4030.7692307692305,1790.4761904761904,1.0,4.745312759250041,210.73426573426573,-4.122137404580153,-0.04580152671755725,-2.5038167938931295,-0.29385307346326833,0.2833583208395802,-0.33883058470764615,1303.2967032967033,96.98940179920302,34.15439330509398,
1771001784665.9934,0.45652173913043476,-5.75,-0.5217391304347826,-1.9006582884500298,-9.194494314781569,-3.097546379413525,4007.326007326007,1764.8351648351647,1.0,4.745312759250041,210.73426573426573,-4.65648854961832,0.6106870229007634,-2.854961832061069,-0.280359820089955,0.2788605697151424,-0.3448275862068965,1298.9010989010987,96.97796160914999,34.15439330509398,
1771001784704.9658,0.46739130434782605,-5.75,-0.5434782608695652,-1.9245960502692998,-9.172950329144225,-3.0951526032315977,4030.7692307692305,1801.4652014652013,1.0,4.745312759250041,210.73426573426573,-4.717557251908397,1.3587786259541985,-2.5801526717557253,-0.2908545727136432,0.2653673163418291,-0.34332833583208394,1271.062271062271,96.98654174745602,34.15439330509398,
1771001784744.0295,0.45652173913043476,-5.739130434782608,-0.532608695652174,-1.9006582884500298,-9.151406343506881,-3.1238779174147218,4024.9084249084244,1794.8717948717947,1.0,4.755523222422177,210.2818035426731,-5.297709923664122,2.0,-2.4885496183206106,-0.3028485757121439,0.2863568215892054,-0.3403298350824588,1249.084249084249,96.9808216524295,34.15439330509398,
1771001784763.653,0.5,-5.739130434782608,-0.5217391304347826,-1.8982645122681028,-9.163375224416518,-3.1143028126870136,4030.7692307692305,1802.9304029304028,1.0,4.755523222422177,210.2818035426731,-4.99236641221374,1.3587786259541985,-2.6564885496183206,-0.29985007496251875,0.29535232383808097,-0.34332833583208394,1252.7472527472526,96.97796160914999,34.15439330509398,
1771001784861.2214,0.5217391304347826,-5.826086956521739,-0.532608695652174,-1.867145421903052,-9.251944943147816,-3.1023339317773786,4032.234432234432,1787.5457875457873,1.0,4.755523222422177,210.2818035426731,-5.1603053435114505,2.5038167938931295,-1.7099236641221374,-0.29235382308845576,0.27136431784107945,-0.33883058470764615,1226.3736263736264,96.98940179920302,34.15439330509398,
1771001784880.845,0.5869565217391304,-5.75,-0.5543478260869565,-1.8073010173548774,-9.172950329144225,-3.1430281268701377,4032.234432234432,1796.3369963369962,1.0,4.755523222422177,210.2818035426731,-5.0534351145038165,3.633587786259542,-2.030534351145038,-0.29685157421289354,0.2833583208395802,-0.3268365817091454,1235.8974358974358,96.975101568693,34.15439330509398,
1771001785056.5413,0.5652173913043478,-5.826086956521739,-0.532608695652174,-1.7690005984440453,-9.211250748055056,-3.116696588868941,4024.9084249084244,1794.139194139194,1.0,4.755523222422177,210.2818035426731,-5.007633587786259,2.229007633587786,-2.427480916030534,-0.29535232383808097,0.29235382308845576,-0.33433283358320837,1580.2197802197802,96.98368169853151,34.15439330509398,
1771001785076.1648,0.5652173913043478,-5.793478260869565,-0.5434782608695652,-1.8432076600837821,-9.26391382405745,-3.1549970077797727,4026.373626373626,1789.7435897435896,1.0,4.755523222422177,210.2818035426731,-4.564885496183206,1.129770992366412,-2.763358778625954,-0.29535232383808097,0.28785607196401797,-0.3403298350824588,1651.2820512820513,96.97796160914999,34.15439330509398,
1771001785271.3928,0.5652173913043478,-5.793478260869565,-0.5543478260869565,-1.7833632555356074,-9.220825852782765,-3.1502094554159186,4029.304029304029,1781.6849816849815,1.0,4.750417990836109,210.5077915099409,-3.9083969465648853,0.24427480916030533,-3.0381679389312977,-0.2908545727136432,0.2563718140929535,-0.328335832083958,1321.6117216117216,96.9876417383827,34.17951916792081,
1771001785310.4568,0.6304347826086957,-5.728260869565217,-0.5543478260869565,-1.7474566128067026,-9.196888090963494,-3.1597845601436263,4032.234432234432,1789.7435897435896,1.0,4.750417990836109,210.5077915099409,-4.351145038167939,-0.41221374045801523,-2.564885496183206,-0.29685157421289354,0.26686656671664166,-0.3148425787106447,1458.6080586080584,96.9876417383827,34.17951916792081,
1771001785330.0803,0.6739130434782609,-5.717391304347826,-0.5108695652173912,-1.6923997606223817,-9.134649910233392,-3.1023339317773786,4032.234432234432,1797.069597069597,1.0,4.750417990836109,210.5077915099409,-4.442748091603053,-0.4580152671755725,-2.381679389312977,-0.29985007496251875,0.2773613193403298,-0.33433283358320837,1485.7142857142856,96.9876417383827,34.17951916792081,
1771001785369.0527,0.6195652173913043,-5.760869565217392,-0.5543478260869565,-1.7211250748055056,-9.199281867145421,-3.1693596648713345,4023.4432234432234,1789.7435897435896,1.0,4.750417990836109,210.5077915099409,-4.015267175572519,-0.04580152671755725,-2.4580152671755724,-0.2983508245877061,0.2983508245877061,-0.3328335832083958,1446.8864468864467,96.98192141746293,34.17951916792081,
1771001785896.416,0.5869565217391304,-5.728260869565217,-0.40217391304347827,-1.8001196888090962,-9.108318372232196,-2.9658886894075405,4030.7692307692305,1789.0109890109889,1.0,4.740207527663974,210.96122778675283,-5.206106870229007,-0.9923664122137404,-1.2366412213740459,-0.2908545727136432,0.2773613193403298,-0.33883058470764615,1827.106227106227,96.98192141746293,34.17951916792081,
1771001785916.0396,0.5760869565217391,-5.728260869565217,-0.42391304347826086,-1.7953321364452424,-9.132256134051467,-2.9539198084979055,4002.9304029304026,1750.9157509157508,1.0,4.735102296077907,211.188679245283,-4.183206106870228,-0.4427480916030534,-1.114503816793893,-0.29685157421289354,0.27136431784107945,-0.3313343328335832,1536.9963369963368,96.97620110783404,34.17951916792081,
1771001785935.5715,0.6086956521739131,-5.760869565217392,-0.4782608695652174,-1.7809694793536803,-9.16816277678037,-3.006582884500299,4030.7692307692305,1790.4761904761904,1.0,4.740207527663974,210.96122778675283,-4.305343511450381,-0.6259541984732824,-0.9923664122137404,-0.29535232383808097,0.2773613193403298,-0.34332833583208394,1264.4688644688645,96.99336207059338,34.17951916792081,
1771001785955.1035,0.5760869565217391,-5.75,-0.5108695652173912,-1.7809694793536803,-9.228007181328545,-3.068821065230401,4030.7692307692305,1801.4652014652013,1.0,4.735102296077907,211.188679245283,-4.824427480916031,0.6412213740458015,-0.8854961832061068,-0.29985007496251875,0.26836581709145424,-0.3298350824587706,1068.8644688644688,96.98192141746293,34.17951916792081,
1771001785974.6355,0.5869565217391304,-5.880434782608695,-0.5,-1.7642130460801915,-9.247157390783961,-3.1071214841412327,4029.304029304029,1798.5347985347985,1.0,4.735102296077907,211.188679245283,-4.2748091603053435,0.5343511450381679,-0.5954198473282443,-0.30134932533733133,0.2578710644677661,-0.3373313343328336,974.3589743589743,96.98478157651145,34.17951916792081,
1771001785994.1675,0.6521739130434783,-5.75,-0.5434782608695652,-1.7426690604428485,-9.206463195691203,-3.1262716935966486,4002.9304029304026,1753.8461538461538,1.0,4.735102296077907,211.188679245283,-3.7251908396946565,1.2366412213740459,-1.099236641221374,-0.29685157421289354,0.280359820089955,-0.34332833583208394,983.1501831501831,96.99050190307668,34.17951916792081,
1771001786345.6514,0.5978260869565217,-5.771739130434782,-0.532608695652174,-1.7737881508078994,-9.196888090963494,-3.1382405745062836,4004.395604395604,1750.18315018315,1.0,4.729997064491838,211.41662169454938,-9.007633587786259,-1.129770992366412,-2.16793893129771,-0.29985007496251875,0.26836581709145424,-0.3448275862068965,1386.080586080586,96.98684972558316,34.174493994773364,
1771001786365.275,0.5978260869565217,-5.793478260869565,-0.532608695652174,-1.7881508078994615,-9.230400957510472,-3.0831837223219627,4027.8388278388275,1782.4175824175823,1.0,4.729997064491838,211.41662169454938,-7.709923664122137,-1.2366412213740459,-1.9083969465648853,-0.29385307346326833,0.2638680659670165,-0.3403298350824588,1367.7655677655678,96.98970986712315,34.174493994773364,
1771001786384.807,0.5978260869565217,-5.75,-0.5652173913043478,-1.7594254937163374,-9.201675643327349,-3.1095152603231595,4007.326007326007,1763.3699633699632,1.0,4.729997064491838,211.41662169454938,-7.1603053435114505,-0.33587786259541985,-1.9083969465648853,-0.29235382308845576,0.2788605697151424,-0.3448275862068965,1348.7179487179487,96.98684972558316,34.174493994773364,
1771001786404.3389,0.5978260869565217,-5.6521739130434785,-0.6195652173913043,-1.7283064033512867,-9.189706762417714,-3.1837223219628963,4032.234432234432,1789.7435897435896,1.0,4.729997064491838,211.41662169454938,-7.251908396946565,0.33587786259541985,-1.3435114503816794,-0.29685157421289354,0.2623688155922039,-0.33883058470764615,1329.6703296703297,96.98684972558316,34.174493994773364,
1771001786423.8706,0.5760869565217391,-5.673913043478261,-0.6304347826086957,-1.7761819269898265,-9.031717534410532,-3.233991621783363,4032.234432234432,1797.069597069597,1.0,4.729997064491838,211.41662169454938,-8.045801526717558,-0.061068702290076333,-1.083969465648855,-0.29235382308845576,0.26686656671664166,-0.3313343328335832,1307.6923076923076,96.98684972558316,34.174493994773364,
1771001788220.7205,0.4782608695652174,-5.83695652173913,-0.4891304347826087,-1.871932974266906,-9.244763614602034,-3.042489527229204,4002.9304029304026,1747.2527472527472,1.0,4.704470906561499,212.56375474769396,-4.152671755725191,-0.4580152671755725,-1.3282442748091603,-0.29235382308845576,0.2848575712143928,-0.3328335832083958,1503.2967032967033,96.97747737697567,34.169468821916965,
1771001788240.344,0.5869565217391304,-5.75,-0.46739130434782605,-1.8216636744464392,-9.194494314781569,-3.032914422501496,4032.234432234432,1784.6153846153845,1.0,4.704470906561499,212.56375474769396,-3.3893129770992365,-1.450381679389313,-1.1755725190839694,-0.29235382308845576,0.2698650674662669,-0.3403298350824588,1535.5311355311355,96.97747737697567,34.169468821916965,
1771001788259.876,0.5978260869565217,-5.804347826086956,-0.5,-1.7235188509874326,-9.163375224416518,-3.032914422501496,4007.326007326007,1763.3699633699632,1.0,4.709576138147567,212.33333333333331,-3.541984732824427,-0.5801526717557252,-1.3282442748091603,-0.30134932533733133,0.2578710644677661,-0.3313343328335832,1547.985347985348,96.9798532069891,34.184544341359285,
1771001788279.408,0.5543478260869565,-5.760869565217392,-0.4782608695652174,-1.864751645721125,-9.244763614602034,-3.066427289048474,4032.234432234432,1789.7435897435896,1.0,4.704470906561499,212.56375474769396,-3.282442748091603,1.3129770992366412,-1.083969465648855,-0.2893553223388306,0.2518740629685157,-0.33433283358320837,1539.194139194139,96.97699303043218,34.184544341359285,
1771001788298.94,0.5760869565217391,-5.771739130434782,-0.4782608695652174,-1.7977259126271694,-9.199281867145421,-3.0592459605026927,4030.7692307692305,1800.7326007326005,1.0,4.704470906561499,212.56375474769396,-3.099236641221374,0.030534351145038167,-0.8702290076335878,-0.29235382308845576,0.2773613193403298,-0.35082458770614694,1507.6923076923076,96.98843375359648,34.184544341359285,
1771001788318.472,0.5217391304347826,-5.858695652173913,-0.4782608695652174,-1.8168761220825853,-9.32854578096948,-3.056852184320766,4021.978021978022,1787.5457875457873,1.0,4.704470906561499,212.56375474769396,-3.312977099236641,-0.04580152671755725,-1.4045801526717556,-0.29985007496251875,0.2773613193403298,-0.3448275862068965,1465.9340659340658,96.98843375359648,34.184544341359285,
1771001788591.828,0.4891304347826087,-5.804347826086956,-0.3913043478260869,-1.871932974266906,-9.213644524236983,-2.9611011370436864,4002.9304029304026,1744.3223443223442,1.0,4.704470906561499,212.56375474769396,-3.114503816793893,-0.7175572519083969,-1.7709923664122136,-0.2983508245877061,0.27436281859070466,-0.3328335832083958,1315.018315018315,96.99129394144448,34.184544341359285,
1771001788611.4514,0.5,-5.771739130434782,-0.45652173913043476,-1.8575703171753442,-9.20885697187313,-3.018551765409934,4027.8388278388275,1780.9523809523807,1.0,4.704470906561499,212.56375474769396,-2.381679389312977,-2.0,-2.198473282442748,-0.2863568215892054,0.2773613193403298,-0.3448275862068965,1320.8791208791208,96.9827133863688,34.184544341359285,
1771001788630.9834,0.5543478260869565,-5.771739130434782,-0.4891304347826087,-1.8384201077199283,-9.220825852782765,-3.052064631956912,4020.5128205128203,1775.8241758241757,1.0,4.704470906561499,212.56375474769396,-2.687022900763359,-1.2671755725190839,-2.030534351145038,-0.2863568215892054,0.2638680659670165,-0.33433283358320837,1365.5677655677655,96.97699303043218,34.184544341359285,
1771001788650.5154,0.5434782608695652,-5.760869565217392,-0.4891304347826087,-1.8312387791741471,-9.194494314781569,-3.0592459605026927,4029.304029304029,1791.9413919413919,1.0,4.704470906561499,212.56375474769396,-3.877862595419847,-0.13740458015267176,-1.4045801526717556,-0.2983508245877061,0.2698650674662669,-0.3313343328335832,1468.8644688644688,96.97413285669802,34.184544341359285,
1771001788670.0474,0.5108695652173912,-5.793478260869565,-0.44565217391304346,-1.862357869539198,-9.20885697187313,-3.054458408138839,4029.304029304029,1795.6043956043954,1.0,4.699365674975432,212.79467680608363,-3.877862595419847,1.083969465648855,-1.2213740458015268,-0.2983508245877061,0.2848575712143928,-0.328335832083958,1602.197802197802,96.9827133863688,34.184544341359285,
1771001788689.579,0.5,-5.793478260869565,-0.41304347826086957,-1.867145421903052,-9.22561340514662,-3.0281268701376423,4027.8388278388275,1795.6043956043954,1.0,4.699365674975432,212.79467680608363,-4.122137404580153,1.2213740458015268,-1.0229007633587786,-0.2908545727136432,0.29685157421289354,-0.3493253373313343,1724.5421245421244,96.97699303043218,34.184544341359285,
1771001788709.111,0.532608695652174,-5.804347826086956,-0.42391304347826086,-1.8575703171753442,-9.230400957510472,-3.0161579892280073,4021.978021978022,1786.8131868131868,1.0,4.699365674975432,212.79467680608363,-4.244274809160305,2.1068702290076335,-1.083969465648855,-0.29385307346326833,0.2908545727136432,-0.3313343328335832,1805.8608058608058,96.9798532069891,34.184544341359285,
1771001788728.6433,0.5543478260869565,-5.793478260869565,-0.42391304347826086,-1.8384201077199283,-9.239976062238181,-3.0089766606822264,4002.9304029304026,1750.9157509157508,1.0,4.699365674975432,212.79467680608363,-4.534351145038168,2.595419847328244,-1.0229007633587786,-0.29535232383808097,0.2848575712143928,-0.34332833583208394,1824.1758241758241,96.99129394144448,34.184544341359285,
1771001788748.1753,0.5434782608695652,-5.793478260869565,-0.41304347826086957,-1.8360263315380012,-9.2327947336924,-2.9802513464991023,4004.395604395604,1746.5201465201465,1.0,4.699365674975432,212.79467680608363,-4.290076335877862,2.717557251908397,-0.7938931297709924,-0.29535232383808097,0.2788605697151424,-0.34332833583208394,1789.7435897435896,96.9798532069891,34.184544341359285,
1771001788767.7073,0.5217391304347826,-5.760869565217392,-0.41304347826086957,-1.8360263315380012,-9.2327947336924,-2.9850388988629564,4032.234432234432,1784.6153846153845,1.0,4.704470906561499,212.56375474769396,-3.6030534351145036,1.7251908396946565,-0.9465648854961831,-0.29985007496251875,0.2638680659670165,-0.3313343328335832,1705.4945054945053,96.9798532069891,34.184544341359285,
1771001788787.2393,0.5543478260869565,-5.771739130434782,-0.3695652173913043,-1.8144823459006583,-9.194494314781569,-2.9563135846798323,4021.978021978022,1783.150183150183,1.0,4.704470906561499,212.56375474769396,-3.9083969465648853,1.6946564885496183,-1.0534351145038168,-0.2893553223388306,0.280359820089955,-0.33883058470764615,1600.7326007326005,96.99129394144448,34.184544341359285,
1771001788806.7712,0.5217391304347826,-5.815217391304348,-0.358695652173913,-1.864751645721125,-9.22561340514662,-2.9084380610412928,4002.9304029304026,1749.4505494505493,1.0,4.699365674975432,212.79467680608363,-3.2671755725190836,0.1984732824427481,-1.618320610687023,-0.3043478260869565,0.2833583208395802,-0.34332833583208394,1487.179487179487,96.9798532069891,34.184544341359285,
1771001788826.3032,0.4891304347826087,-5.826086956521739,-0.3913043478260869,-1.8886894075403948,-9.26391382405745,-2.9539198084979055,4032.234432234432,1785.3479853479853,1.0,4.699365674975432,212.79467680608363,-2.8702290076335877,-0.9312977099236641,-1.5267175572519083,-0.2983508245877061,0.2833583208395802,-0.3373313343328336,1396.3369963369962,96.98843375359648,34.184544341359285,
1771001789861.406,0.4891304347826087,-5.793478260869565,-0.358695652173913,-1.8791143028126869,-9.230400957510472,-2.9587073608617596,4030.7692307692305,1791.2087912087911,1.0,4.694260443389363,213.02610114192495,-4.1679389312977095,0.16793893129770993,-2.2900763358778624,-0.2983508245877061,0.27586206896551724,-0.3583208395802099,1303.2967032967033,96.9876417383827,34.17951916792081,
1771001789881.0295,0.5108695652173912,-5.793478260869565,-0.3695652173913043,-1.867145421903052,-9.22561340514662,-2.9563135846798323,4019.047619047619,1783.150183150183,1.0,4.694260443389363,213.02610114192495,-4.137404580152672,0.32061068702290074,-1.648854961832061,-0.29535232383808097,0.2698650674662669,-0.34332833583208394,1311.3553113553112,96.97906126123713,34.17951916792081,
1771001789900.5615,0.5217391304347826,-5.782608695652174,-0.3913043478260869,-1.85278276481149,-9.218432076600838,-2.9682824655894673,4029.304029304029,1792.6739926739926,1.0,4.694260443389363,213.02610114192495,-4.488549618320611,0.1984732824427481,-1.8931297709923662,-0.2908545727136432,0.2893553223388306,-0.34632683658170915,1313.5531135531135,96.97906126123713,34.17951916792081,
1771001789920.0935,0.5,-5.782608695652174,-0.3913043478260869,-1.867145421903052,-9.194494314781569,-2.951526032315978,4027.8388278388275,1794.8717948717947,1.0,4.694260443389363,213.02610114192495,-4.091603053435114,0.3053435114503817,-1.8625954198473282,-0.29685157421289354,0.2833583208395802,-0.34332833583208394,1316.4835164835165,96.98192141746293,34.17951916792081,
1771001789939.6255,0.4782608695652174,-5.815217391304348,-0.3695652173913043,-1.867145421903052,-9.261520047875523,-2.9251944943147814,4027.8388278388275,1795.6043956043954,1.0,4.689155211803296,213.25802939575394,-4.595419847328244,0.5038167938931297,-1.6946564885496183,-0.29385307346326833,0.25337331334332835,-0.335832083958021,1315.018315018315,96.97334095725371,34.17951916792081,
1771001789959.1577,0.44565217391304346,-5.804347826086956,-0.34782608695652173,-1.9030520646319569,-9.261520047875523,-2.9251944943147814,4020.5128205128203,1780.2197802197802,1.0,4.694260443389363,213.02610114192495,-4.366412213740458,-0.21374045801526717,-2.0,-0.28785607196401797,0.2863568215892054,-0.34632683658170915,1308.4249084249084,96.97906126123713,34.17951916792081,
1771001789978.6897,0.532608695652174,-5.804347826086956,-0.3695652173913043,-1.871932974266906,-9.25673249551167,-2.9204069419509273,4007.326007326007,1762.6373626373625,1.0,4.694260443389363,213.02610114192495,-4.564885496183206,0.2748091603053435,-1.6030534351145038,-0.2893553223388306,0.27136431784107945,-0.34182908545727136,1310.6227106227104,96.9876417383827,34.17951916792081,
1771001789998.2214,0.532608695652174,-5.771739130434782,-0.3695652173913043,-1.85278276481149,-9.22561340514662,-2.9587073608617596,4004.395604395604,1749.4505494505493,1.0,4.694260443389363,213.02610114192495,-4.580152671755725,0.6412213740458015,-1.5267175572519083,-0.2893553223388306,0.27586206896551724,-0.34782608695652173,1313.5531135531135,96.97906126123713,34.17951916792081,
1771001790017.7534,0.5434782608695652,-5.75,-0.3695652173913043,-1.8479952124476362,-9.192100538599641,-2.9563135846798323,4030.7692307692305,1790.4761904761904,1.0,4.694260443389363,213.02610114192495,-4.534351145038168,0.8549618320610687,-1.297709923664122,-0.3028485757121439,0.2698650674662669,-0.34182908545727136,1312.087912087912,96.97620110783404,34.17951916792081,
1771001790037.2854,0.5108695652173912,-5.771739130434782,-0.3695652173913043,-1.840813883901855,-9.20885697187313,-2.9180131657690005,4017.5824175824173,1777.2893772893772,1.0,4.694260443389363,213.02610114192495,-4.717557251908397,-0.12213740458015267,-1.3740458015267174,-0.29535232383808097,0.272863568215892,-0.3313343328335832,1309.1575091575091,96.98478157651145,34.17951916792081,
1771001790056.8174,0.5434782608695652,-5.771739130434782,-0.33695652173913043,-1.8479952124476362,-9.2327947336924,-2.9443447037701973,4030.7692307692305,1797.8021978021977,1.0,4.694260443389363,213.02610114192495,-4.3206106870229,-2.0,-1.8931297709923662,-0.29385307346326833,0.2653673163418291,-0.34182908545727136,1306.9597069597069,96.97906126123713,34.17951916792081,
1771001790076.3494,0.5217391304347826,-5.815217391304348,-0.358695652173913,-1.85278276481149,-9.2327947336924,-2.9443447037701973,4027.8388278388275,1796.3369963369962,1.0,4.694260443389363,213.02610114192495,-4.030534351145038,-2.8396946564885495,-2.198473282442748,-0.29535232383808097,0.29535232383808097,-0.3448275862068965,1326.007326007326,96.98192141746293,34.17951916792081,
1771001790095.881,0.5217391304347826,-5.804347826086956,-0.3804347826086956,-1.871932974266906,-9.254338719329743,-2.9611011370436864,4030.7692307692305,1803.6630036630036,1.0,4.694260443389363,213.02610114192495,-3.679389312977099,-2.427480916030534,-2.610687022900763,-0.30134932533733133,0.26686656671664166,-0.3448275862068965,1389.0109890109889,96.97620110783404,34.17951916792081,
1771001790115.413,0.5108695652173912,-5.793478260869565,-0.40217391304347827,-1.874326750448833,-9.22561340514662,-2.994614003590664,4030.7692307692305,1805.128205128205,1.0,4.694260443389363,213.02610114192495,-3.9541984732824424,-1.2213740458015268,-2.030534351145038,-0.29385307346326833,0.29235382308845576,-0.34332833583208394,1486.4468864468863,96.97906126123713,34.17951916792081,
1771001790134.9453,0.4891304347826087,-5.793478260869565,-0.3913043478260869,-1.8791143028126869,-9.218432076600838,-2.994614003590664,4005.8608058608056,1763.3699633699632,1.0,4.689155211803296,213.25802939575394,-4.748091603053435,-0.183206106870229,-1.8473282442748091,-0.28785607196401797,0.2818590704647676,-0.3403298350824588,1592.6739926739926,96.97620110783404,34.17951916792081,
1771001790154.4773,0.4782608695652174,-5.793478260869565,-0.358695652173913,-1.8886894075403948,-9.22561340514662,-2.9323758228605623,4002.9304029304026,1744.3223443223442,1.0,4.694260443389363,213.02610114192495,-5.083969465648854,0.3511450381679389,-1.5419847328244274,-0.29535232383808097,0.272863568215892,-0.33883058470764615,1675.4578754578754,96.97906126123713,34.17951916792081,
1771001790349.705,0.5108695652173912,-5.771739130434782,-0.40217391304347827,-1.859964093357271,-9.204069419509276,-2.9922202274087373,4027.8388278388275,1793.4065934065932,1.0,4.694260443389363,213.02610114192495,-3.8167938931297707,1.0229007633587786,-1.8473282442748091,-0.2908545727136432,0.2773613193403298,-0.33883058470764615,1321.6117216117216,96.9827133863688,34.184544341359285,
1771001790584.0889,0.5108695652173912,-5.782608695652174,-0.3804347826086956,-1.8791143028126869,-9.239976062238181,-2.9611011370436864,4030.7692307692305,1790.4761904761904,1.0,4.689155211803296,213.25802939575394,-3.847328244274809,0.1984732824427481,-1.9236641221374045,-0.29385307346326833,0.2818590704647676,-0.34182908545727136,1260.8058608058607,96.97699303043218,34.184544341359285,
1771001790603.7124,0.4782608695652174,-5.782608695652174,-0.3913043478260869,-1.883901855176541,-9.235188509874327,-2.9611011370436864,4029.304029304029,1795.6043956043954,1.0,4.689155211803296,213.25802939575394,-4.229007633587786,0.13740458015267176,-1.984732824427481,-0.2908545727136432,0.27436281859070466,-0.34332833583208394,1276.923076923077,96.9798532069891,34.184544341359285,
1771001790623.2444,0.5108695652173912,-5.771739130434782,-0.3804347826086956,-1.8886894075403948,-9.213644524236983,-2.9467384799521246,4002.9304029304026,1753.113553113553,1.0,4.689155211803296,213.25802939575394,-4.2748091603053435,0.13740458015267176,-2.183206106870229,-0.29685157421289354,0.27136431784107945,-0.34782608695652173,1290.10989010989,96.97413285669802,34.184544341359285,
1771001790642.7764,0.5108695652173912,-5.739130434782608,-0.3913043478260869,-1.8479952124476362,-9.199281867145421,-2.951526032315978,4030.7692307692305,1791.2087912087911,1.0,4.689155211803296,213.25802939575394,-4.076335877862595,-0.3053435114503817,-1.9083969465648853,-0.29685157421289354,0.27586206896551724,-0.3313343328335832,1301.8315018315018,96.98843375359648,34.184544341359285,
1771001790662.3083,0.5108695652173912,-5.782608695652174,-0.358695652173913,-1.8551765409934171,-9.204069419509276,-2.9228007181328546,4011.721611721611,1767.7655677655675,1.0,4.689155211803296,213.25802939575394,-4.366412213740458,0.16793893129770993,-1.4198473282442747,-0.29535232383808097,0.2848575712143928,-0.3403298350824588,1297.4358974358975,96.9798532069891,34.184544341359285,
1771001790681.8403,0.45652173913043476,-5.8478260869565215,-0.32608695652173914,-1.8910831837223219,-9.271095152603232,-2.9108318372232196,4032.234432234432,1791.2087912087911,1.0,4.689155211803296,213.25802939575394,-4.687022900763359,0.183206106870229,-1.5267175572519083,-0.3028485757121439,0.2653673163418291,-0.33883058470764615,1288.6446886446886,96.97699303043218,34.184544341359285,
1771001790701.3723,0.45652173913043476,-5.826086956521739,-0.3695652173913043,-1.9413524835427887,-9.285457809694794,-2.9132256134051464,4027.8388278388275,1794.139194139194,1.0,4.689155211803296,213.25802939575394,-4.442748091603053,-1.0534351145038168,-1.83206106870229,-0.29685157421289354,0.2848575712143928,-0.34182908545727136,1292.3076923076922,96.97699303043218,34.184544341359285,
1771001790720.9043,0.5108695652173912,-5.815217391304348,-0.3913043478260869,-1.87672052663076,-9.2327947336924,-2.951526032315978,4026.373626373626,1788.278388278388,1.0,4.684049980217227,213.49046321525884,-3.801526717557252,-1.2519083969465647,-2.1374045801526718,-0.29535232383808097,0.2893553223388306,-0.34632683658170915,1309.1575091575091,96.97699303043218,34.184544341359285,
1771001790740.4363,0.532608695652174,-5.760869565217392,-0.3804347826086956,-1.8384201077199283,-9.194494314781569,-2.9587073608617596,4011.721611721611,1767.7655677655675,1.0,4.689155211803296,213.25802939575394,-3.9083969465648853,-0.4427480916030534,-1.7862595419847327,-0.29385307346326833,0.2818590704647676,-0.3298350824587706,1315.018315018315,96.9798532069891,34.184544341359285,
1771001790759.9685,0.5217391304347826,-5.75,-0.3913043478260869,-1.8456014362657092,-9.192100538599641,-2.9730700179533214,4004.395604395604,1751.6483516483515,1.0,4.684049980217227,213.49046321525884,-4.061068702290076,0.549618320610687,-1.282442748091603,-0.2908545727136432,0.27136431784107945,-0.35082458770614694,1309.1575091575091,96.97413285669802,34.184544341359285,
1771001790779.5002,0.5217391304347826,-5.760869565217392,-0.32608695652173914,-1.864751645721125,-9.187312986235787,-2.9371633752244164,4002.9304029304026,1740.6593406593406,1.0,4.689155211803296,213.25802939575394,-3.9847328244274807,0.6106870229007634,-1.4961832061068703,-0.29685157421289354,0.27586206896551724,-0.34782608695652173,1298.168498168498,96.9827133863688,34.184544341359285,
1771001790799.0322,0.5434782608695652,-5.804347826086956,-0.358695652173913,-1.8384201077199283,-9.165769000598443,-2.9204069419509273,4030.7692307692305,1787.5457875457873,1.0,4.689155211803296,213.25802939575394,-4.152671755725191,-1.0076335877862594,-1.6946564885496183,-0.2863568215892054,0.27136431784107945,-0.3448275862068965,1291.5750915750914,96.98843375359648,34.184544341359285,
1771001790818.5642,0.46739130434782605,-5.815217391304348,-0.3804347826086956,-1.9198084979054457,-9.261520047875523,-2.939557151406343,4011.721611721611,1767.032967032967,1.0,4.689155211803296,213.25802939575394,-4.442748091603053,-1.0076335877862594,-2.015267175572519,-0.29535232383808097,0.27136431784107945,-0.3373313343328336,1295.970695970696,96.9798532069891,34.184544341359285,
1771001790838.0962,0.4782608695652174,-5.804347826086956,-0.358695652173913,-1.9317773788150807,-9.251944943147816,-2.9419509275882705,4032.234432234432,1791.2087912087911,1.0,4.684049980217227,213.49046321525884,-4.305343511450381,-1.5419847328244274,-1.83206106870229,-0.29385307346326833,0.26686656671664166,-0.3373313343328336,1334.7985347985348,96.97699303043218,34.184544341359285,
1771001790857.6282,0.45652173913043476,-5.782608695652174,-0.42391304347826086,-1.8982645122681028,-9.223219628964692,-3.0281268701376423,4030.7692307692305,1801.4652014652013,1.0,4.684049980217227,213.49046321525884,-3.83206106870229,-1.0381679389312977,-1.9083969465648853,-0.29385307346326833,0.25487256371814093,-0.34332833583208394,1421.9780219780218,96.97699303043218,34.184544341359285,
1771001790896.6006,0.46739130434782605,-5.793478260869565,-0.40217391304347827,-1.9030520646319569,-9.213644524236983,-2.939557151406343,4029.304029304029,1797.069597069597,1.0,4.689155211803296,213.25802939575394,-4.473282442748092,-0.22900763358778625,-1.648854961832061,-0.29685157421289354,0.2788605697151424,-0.3448275862068965,1613.9194139194137,96.9798532069891,34.184544341359285,
