Shimmer_A679_TimestampSync_Unix_CAL,Shimmer_A679_Accel_LN_X_CAL,Shimmer_A679_Accel_LN_Y_CAL,Shimmer_A679_Accel_LN_Z_CAL,Shimmer_A679_Accel_WR_X_CAL,Shimmer_A679_Accel_WR_Y_CAL,Shimmer_A679_Accel_WR_Z_CAL,Shimmer_A679_Battery_CAL,Shimmer_A679_Ext_Exp_A15_CAL,Shimmer_A679_GSR_Range_CAL,Shimmer_A679_GSR_Skin_Conductance_CAL,Shimmer_A679_GSR_Skin_Resistance_CAL,Shimmer_A679_Gyro_X_CAL,Shimmer_A679_Gyro_Y_CAL,Shimmer_A679_Gyro_Z_CAL,Shimmer_A679_Mag_X_CAL,Shimmer_A679_Mag_Y_CAL,Shimmer_A679_Mag_Z_CAL,Shimmer_A679_PPG_A13_CAL,Shimmer_A679_Pressure_BMP280_CAL,Shimmer_A679_Temperature_BMP280_CAL,Unnamed: 21
1770997159004.0093,0.6413043478260869,-5.641304347826087,-0.14130434782608695,-1.6732495511669658,-9.038898862956314,-2.657091561938959,4083.5164835164833,1905.4945054945053,1.0,7.925872037370294,126.16908212560386,6.870229007633587,8.351145038167939,-1.7404580152671756,-0.2593703148425787,0.24137931034482757,-0.24737631184407796,1199.2673992673992,96.95296102886697,33.50614855960593,
1770997159023.5442,0.6086956521739131,-5.576086956521739,-0.14130434782608695,-1.7115499700777976,-8.974266906044285,-2.6977857570317174,4082.0512820512818,1901.8315018315018,1.0,7.925872037370294,126.16908212560386,8.015267175572518,10.427480916030534,-5.893129770992366,-0.26686656671664166,0.23238380809595202,-0.23088455772113942,1196.3369963369962,96.95867529742216,33.50614855960593,
1770997159043.0789,0.6413043478260869,-5.521739130434782,-0.2391304347826087,-1.7067624177139438,-8.912028725314183,-2.7576301615798924,4082.0512820512818,1901.098901098901,1.0,7.925872037370294,126.16908212560386,8.778625954198473,12.167938931297709,-9.709923664122137,-0.2593703148425787,0.2353823088455772,-0.239880059970015,1224.1758241758241,96.96153243592498,33.50614855960593,
1770997159062.6138,0.6195652173913043,-5.521739130434782,-0.25,-1.7187312986235788,-8.895272292040694,-2.819868342309994,4080.5860805860802,1900.3663003663003,1.0,7.925872037370294,126.16908212560386,9.31297709923664,13.801526717557252,-13.221374045801527,-0.272863568215892,0.22488755622188905,-0.24137931034482757,1260.07326007326,96.95296102886697,33.50614855960593,
1770997159082.1487,0.5434782608695652,-5.619565217391304,-0.2717391304347826,-1.8096947935368042,-8.991023339317774,-2.8509874326750446,4083.5164835164833,1906.9597069597069,1.0,7.925872037370294,126.16908212560386,9.419847328244275,15.068702290076335,-15.908396946564885,-0.2608695652173913,0.2593703148425787,-0.239880059970015,1288.6446886446886,96.95296102886697,33.50614855960593,
1770997159101.6836,0.532608695652174,-5.945652173913043,-0.32608695652173914,-1.8264512268102933,-9.347695990424896,-2.8557749850388987,4082.0512820512818,1902.5641025641025,1.0,7.925872037370294,126.16908212560386,8.13740458015267,14.427480916030534,-18.62595419847328,-0.26836581709145424,0.22338830584707645,-0.2353823088455772,1306.227106227106,96.95296102886697,33.50614855960593,
1770997159121.2185,0.45652173913043476,-6.054347826086956,-0.45652173913043476,-1.8910831837223219,-9.481747456612807,-2.9922202274087373,4068.8644688644686,1884.249084249084,1.0,7.925872037370294,126.16908212560386,8.106870229007633,13.465648854961831,-22.381679389312975,-0.272863568215892,0.23238380809595202,-0.24587706146926536,1311.3553113553112,96.9643895772446,33.50614855960593,
1770997159140.7534,0.3804347826086956,-5.967391304347826,-0.5217391304347826,-1.9796529024536205,-9.450628366247756,-3.092758827049671,4083.5164835164833,1902.5641025641025,1.0,7.930977268956363,126.08786610878661,6.381679389312977,12.50381679389313,-25.51145038167939,-0.2638680659670165,0.239880059970015,-0.2338830584707646,1307.6923076923076,96.9643895772446,33.50614855960593,
1770997159160.288,0.3913043478260869,-5.793478260869565,-0.4891304347826087,-2.0011968880909636,-9.31178934769599,-3.078396169958109,4083.5164835164833,1907.6923076923076,1.0,7.925872037370294,126.16908212560386,4.076335877862595,10.381679389312977,-27.893129770992367,-0.2698650674662669,0.25037481259370314,-0.24737631184407796,1298.168498168498,96.9643895772446,33.50614855960593,
1770997159179.823,0.5543478260869565,-5.782608695652174,-0.45652173913043476,-1.9006582884500298,-9.153800119688809,-3.054458408138839,4082.0512820512818,1902.5641025641025,1.0,7.925872037370294,126.16908212560386,3.282442748091603,7.007633587786259,-29.66412213740458,-0.2698650674662669,0.24587706146926536,-0.2518740629685157,1278.3882783882782,96.95867529742216,33.50614855960593,
1770997159199.358,0.6521739130434783,-5.793478260869565,-0.44565217391304346,-1.7307001795332135,-9.199281867145421,-3.023339317773788,4073.260073260073,1886.4468864468863,1.0,7.925872037370294,126.16908212560386,2.0,3.8167938931297707,-27.66412213740458,-0.2698650674662669,0.24887556221889054,-0.24287856071964017,1254.9450549450548,96.95296102886697,33.50614855960593,
1770997159218.8928,0.5869565217391304,-6.0,-0.44565217391304346,-1.7474566128067026,-9.271095152603232,-3.011370436864153,4058.6080586080584,1865.201465201465,1.0,7.925872037370294,126.16908212560386,0.8244274809160305,1.83206106870229,-24.12213740458015,-0.280359820089955,0.24737631184407796,-0.24587706146926536,1276.923076923077,96.95581816173618,33.50614855960593,
1770997159238.4275,0.43478260869565216,-6.054347826086956,-0.5217391304347826,-1.883901855176541,-9.46259724715739,-3.08557749850389,4082.0512820512818,1890.8424908424906,1.0,7.925872037370294,126.16908212560386,-0.366412213740458,-0.33587786259541985,-21.740458015267176,-0.27436281859070466,0.2353823088455772,-0.24287856071964017,1355.3113553113553,96.95867529742216,33.50614855960593,
1770997159257.9626,0.3695652173913043,-6.021739130434782,-0.5434782608695652,-1.9796529024536205,-9.467384799521245,-3.1334530221424295,4082.0512820512818,1898.168498168498,1.0,7.925872037370294,126.16908212560386,-2.9923664122137406,-5.480916030534351,-20.641221374045802,-0.2863568215892054,0.2698650674662669,-0.24287856071964017,1383.8827838827838,96.95867529742216,33.50614855960593,
1770997159277.4976,0.40217391304347827,-5.967391304347826,-0.4782608695652174,-2.0035906642728905,-9.421903052064632,-3.1238779174147218,4067.399267399267,1876.923076923077,1.0,7.925872037370294,126.16908212560386,-5.541984732824427,-10.702290076335878,-20.030534351145036,-0.27586206896551724,0.24737631184407796,-0.24887556221889054,1358.2417582417581,96.95581816173618,33.50614855960593,
1770997159297.0322,0.46739130434782605,-5.891304347826087,-0.40217391304347827,-1.9485338120885696,-9.340514661879114,-3.011370436864153,4083.5164835164833,1900.3663003663003,1.0,7.925872037370294,126.16908212560386,-8.213740458015266,-15.98473282442748,-19.358778625954198,-0.2773613193403298,0.25337331334332835,-0.24437781109445278,1304.0293040293038,96.95581816173618,33.50614855960593,
1770997159316.5671,0.532608695652174,-5.891304347826087,-0.34782608695652173,-1.8575703171753442,-9.302214242968283,-2.9371633752244164,4083.5164835164833,1899.6336996336995,1.0,7.925872037370294,126.16908212560386,-10.80916030534351,-21.16030534351145,-17.603053435114504,-0.2773613193403298,0.25337331334332835,-0.2383808095952024,1242.4908424908424,96.95296102886697,33.50614855960593,
1770997159336.102,0.5434782608695652,-5.9021739130434785,-0.32608695652173914,-1.8240574506283662,-9.33572710951526,-2.8821065230400955,4080.5860805860802,1899.6336996336995,1.0,7.925872037370294,126.16908212560386,-13.099236641221374,-25.69465648854962,-14.427480916030534,-0.2848575712143928,0.24887556221889054,-0.25037481259370314,1213.9194139194137,96.95010389881459,33.50614855960593,
1770997159355.637,0.5217391304347826,-5.880434782608695,-0.32608695652173914,-1.864751645721125,-9.342908438061041,-2.9084380610412928,4070.32967032967,1884.9816849816848,1.0,7.925872037370294,126.16908212560386,-15.511450381679388,-29.48091603053435,-11.786259541984732,-0.27586206896551724,0.25337331334332835,-0.24737631184407796,1208.7912087912086,96.95867529742216,33.50614855960593,
1770997159375.172,0.45652173913043476,-5.83695652173913,-0.2934782608695652,-1.9293836026331537,-9.251944943147816,-2.865350089766607,4058.6080586080584,1865.201465201465,1.0,7.925872037370294,126.16908212560386,-17.175572519083968,-33.51145038167939,-9.450381679389313,-0.2698650674662669,0.2518740629685157,-0.2578710644677661,1224.9084249084249,96.95867529742216,33.50614855960593,
1770997159394.7068,0.4782608695652174,-5.8478260869565215,-0.2391304347826087,-1.8910831837223219,-9.247157390783961,-2.817474566128067,4082.0512820512818,1890.1098901098899,1.0,7.925872037370294,126.16908212560386,-18.580152671755723,-36.916030534351144,-8.610687022900763,-0.280359820089955,0.2368815592203898,-0.24587706146926536,1238.095238095238,96.95010389881459,33.50614855960593,
1770997159414.2417,0.5652173913043478,-5.891304347826087,-0.19565217391304346,-1.7905445840813883,-9.285457809694794,-2.760023937761819,4082.0512820512818,1897.4358974358972,1.0,7.930977268956363,126.08786610878661,-19.221374045801525,-39.89312977099237,-8.076335877862595,-0.2773613193403298,0.2383808095952024,-0.2563718140929535,1245.4212454212454,96.95296102886697,33.50614855960593,
1770997159433.7764,0.5434782608695652,-5.9021739130434785,-0.20652173913043478,-1.8073010173548774,-9.321364452423698,-2.750448833034111,4064.468864468864,1876.1904761904761,1.0,7.930977268956363,126.08786610878661,-20.076335877862594,-41.038167938931295,-7.1603053435114505,-0.27436281859070466,0.24287856071964017,-0.25487256371814093,1252.014652014652,96.95581816173618,33.50614855960593,
1770997159453.3113,0.5217391304347826,-5.9021739130434785,-0.19565217391304346,-1.8456014362657092,-9.340514661879114,-2.736086175942549,4083.5164835164833,1900.3663003663003,1.0,7.925872037370294,126.16908212560386,-20.290076335877863,-41.282442748091604,-6.778625954198473,-0.272863568215892,0.24287856071964017,-0.2578710644677661,1250.5494505494505,96.95296102886697,33.50614855960593,
1770997159472.8462,0.532608695652174,-5.934782608695652,-0.17391304347826086,-1.840813883901855,-9.342908438061041,-2.7145421903052065,4082.0512820512818,1900.3663003663003,1.0,7.925872037370294,126.16908212560386,-19.541984732824428,-41.95419847328244,-6.946564885496183,-0.27586206896551724,0.24887556221889054,-0.2638680659670165,1247.6190476190475,96.95296102886697,33.50614855960593,
1770997159492.381,0.5760869565217391,-5.891304347826087,-0.17391304347826086,-1.7953321364452424,-9.321364452423698,-2.7384799521244765,4082.0512820512818,1900.3663003663003,1.0,7.925872037370294,126.16908212560386,-19.099236641221374,-42.50381679389313,-7.83206106870229,-0.2698650674662669,0.24587706146926536,-0.2593703148425787,1230.7692307692307,96.95581816173618,33.50614855960593,
1770997159511.916,0.5760869565217391,-5.858695652173913,-0.14130434782608695,-1.7809694793536803,-9.266307600239378,-2.6834230999401556,4082.0512820512818,1900.3663003663003,1.0,7.930977268956363,126.08786610878661,-17.755725190839694,-41.74045801526717,-8.885496183206106,-0.272863568215892,0.2518740629685157,-0.2593703148425787,1213.1868131868132,96.95296102886697,33.50614855960593,
1770997159531.4507,0.6195652173913043,-5.804347826086956,-0.15217391304347827,-1.7187312986235788,-9.18491921005386,-2.6834230999401556,4058.6080586080584,1868.8644688644688,1.0,7.925872037370294,126.16908212560386,-16.671755725190838,-40.44274809160305,-8.610687022900763,-0.26836581709145424,0.24887556221889054,-0.2653673163418291,1216.8498168498168,96.95296102886697,33.50614855960593,
1770997159550.9856,0.6521739130434783,-5.739130434782608,-0.18478260869565216,-1.6900059844404547,-9.153800119688809,-2.7121484141232792,4054.212454212454,1858.6080586080584,1.0,7.930977268956363,126.08786610878661,-15.694656488549617,-39.38931297709924,-9.541984732824426,-0.272863568215892,0.22938530734632684,-0.272863568215892,1268.8644688644688,96.96153243592498,33.50614855960593,
1770997159570.5205,0.5760869565217391,-5.717391304347826,-0.19565217391304346,-1.7115499700777976,-9.12028725314183,-2.7384799521244765,4083.5164835164833,1895.2380952380952,1.0,7.925872037370294,126.16908212560386,-14.625954198473282,-38.595419847328245,-10.427480916030534,-0.27136431784107945,0.24587706146926536,-0.27436281859070466,1387.5457875457876,96.9643895772446,33.50614855960593,
1770997159590.0554,0.5652173913043478,-5.760869565217392,-0.22826086956521738,-1.7977259126271694,-9.134649910233392,-2.736086175942549,4064.468864468864,1875.4578754578754,1.0,7.930977268956363,126.08786610878661,-13.282442748091603,-39.31297709923664,-11.98473282442748,-0.2698650674662669,0.24287856071964017,-0.26836581709145424,1561.9047619047617,96.95581816173618,33.50614855960593,
1770997159609.5903,0.6304347826086957,-5.826086956521739,-0.25,-1.7330939557151406,-9.175344105326152,-2.781567923399162,4084.981684981685,1894.5054945054944,1.0,7.925872037370294,126.16908212560386,-12.6412213740458,-39.29770992366412,-13.343511450381678,-0.2698650674662669,0.24287856071964017,-0.272863568215892,1758.2417582417581,96.9643895772446,33.50614855960593,
1770997159629.1252,0.6195652173913043,-5.858695652173913,-0.33695652173913043,-1.6876122082585279,-9.242369838420107,-2.8557749850388987,4083.5164835164833,1905.4945054945053,1.0,7.925872037370294,126.16908212560386,-11.66412213740458,-37.57251908396947,-14.015267175572518,-0.2608695652173913,0.24737631184407796,-0.2818590704647676,1915.018315018315,96.95867529742216,33.50614855960593,
1770997159648.6602,0.5869565217391304,-5.858695652173913,-0.43478260869565216,-1.7426690604428485,-9.31178934769599,-2.970676241771394,4083.5164835164833,1907.6923076923076,1.0,7.925872037370294,126.16908212560386,-10.717557251908396,-35.587786259541986,-15.587786259541984,-0.2788605697151424,0.24587706146926536,-0.280359820089955,1982.4175824175823,96.95296102886697,33.50614855960593,
1770997159668.1948,0.5543478260869565,-5.858695652173913,-0.45652173913043476,-1.8168761220825853,-9.275882704967085,-3.032914422501496,4083.5164835164833,1909.1575091575091,1.0,7.930977268956363,126.08786610878661,-10.045801526717558,-35.69465648854962,-16.80916030534351,-0.26686656671664166,0.2518740629685157,-0.280359820089955,1961.172161172161,96.95867529742216,33.50614855960593,
1770997159687.7295,0.6521739130434783,-5.9021739130434785,-0.4891304347826087,-1.7666068222621185,-9.297426690604429,-3.025733093955715,4060.07326007326,1877.6556776556774,1.0,7.930977268956363,126.08786610878661,-9.251908396946565,-34.83969465648855,-17.251908396946565,-0.27436281859070466,0.24137931034482757,-0.28785607196401797,1860.8058608058607,96.95581816173618,33.50614855960593,
1770997159707.2646,0.6086956521739131,-5.858695652173913,-0.6413043478260869,-1.7378815080789947,-9.278276481149012,-3.1645721125074804,4055.6776556776554,1854.9450549450548,1.0,7.925872037370294,126.16908212560386,-9.358778625954198,-33.6793893129771,-16.244274809160306,-0.26686656671664166,0.2563718140929535,-0.29685157421289354,1731.135531135531,96.95581816173618,33.50614855960593,
1770997159726.7996,0.5434782608695652,-5.815217391304348,-0.75,-1.8049072411729503,-9.247157390783961,-3.3656493117893476,4084.981684981685,1888.6446886446886,1.0,7.925872037370294,126.16908212560386,-9.450381679389313,-33.343511450381676,-15.84732824427481,-0.2698650674662669,0.24587706146926536,-0.2983508245877061,1602.9304029304028,96.95867529742216,33.50614855960593,
1770997159746.3345,0.4782608695652174,-5.695652173913043,-0.717391304347826,-1.8791143028126869,-9.125074805505685,-3.3632555356074207,4064.468864468864,1873.9926739926739,1.0,7.930977268956363,126.08786610878661,-9.541984732824426,-33.32824427480916,-15.893129770992365,-0.26836581709145424,0.2368815592203898,-0.29385307346326833,1488.6446886446886,96.95867529742216,33.50614855960593,
1770997159765.8694,0.5434782608695652,-5.684782608695652,-0.6630434782608695,-1.859964093357271,-9.084380610412927,-3.277079593058049,4084.981684981685,1894.5054945054944,1.0,7.925872037370294,126.16908212560386,-10.50381679389313,-34.3206106870229,-16.061068702290076,-0.26686656671664166,0.2518740629685157,-0.29535232383808097,1392.6739926739926,96.9594676122312,33.51117369404528,
1770997159785.404,0.5652173913043478,-5.706521739130435,-0.8043478260869565,-1.7929383602633153,-9.101137043686416,-3.3488928785158585,4083.5164835164833,1904.7619047619046,1.0,7.930977268956363,126.08786610878661,-11.603053435114504,-34.82442748091603,-14.916030534351144,-0.27136431784107945,0.2518740629685157,-0.29235382308845576,1333.3333333333333,96.9537532973774,33.51117369404528,
1770997159804.939,0.40217391304347827,-5.684782608695652,-0.9456521739130435,-1.9198084979054457,-9.053261520047876,-3.523638539796529,4080.5860805860802,1901.098901098901,1.0,7.925872037370294,126.16908212560386,-12.045801526717558,-33.664122137404576,-13.893129770992365,-0.27136431784107945,0.2638680659670165,-0.29685157421289354,1327.4725274725274,96.9537532973774,33.51117369404528,
1770997159824.474,0.2608695652173913,-5.532608695652174,-1.0,-2.106523040095751,-8.957510472770796,-3.6624775583482942,4067.399267399267,1878.3882783882782,1.0,7.930977268956363,126.08786610878661,-12.15267175572519,-34.87022900763359,-14.717557251908396,-0.27436281859070466,0.27136431784107945,-0.3073463268365817,1364.102564102564,96.9537532973774,33.51117369404528,
1770997159844.0088,0.33695652173913043,-5.445652173913043,-0.8478260869565217,-2.087372830640335,-8.837821663674447,-3.533213644524237,4083.5164835164833,1900.3663003663003,1.0,7.930977268956363,126.08786610878661,-12.763358778625953,-37.57251908396947,-14.80916030534351,-0.27436281859070466,0.27136431784107945,-0.31334332833583206,1416.8498168498168,96.9594676122312,33.51117369404528,
1770997159863.5437,0.4891304347826087,-5.467391304347826,-0.7391304347826086,-1.8886894075403948,-8.816277678037103,-3.3536804308797126,4084.981684981685,1901.8315018315018,1.0,7.930977268956363,126.08786610878661,-14.061068702290076,-37.587786259541986,-12.839694656488549,-0.27436281859070466,0.2773613193403298,-0.3073463268365817,1453.4798534798533,96.9594676122312,33.51117369404528,
1770997159883.0786,0.5434782608695652,-5.478260869565217,-0.7717391304347826,-1.7905445840813883,-8.847396768402154,-3.3512866546977857,4083.5164835164833,1906.9597069597069,1.0,7.930977268956363,126.08786610878661,-15.648854961832061,-33.770992366412216,-10.061068702290076,-0.2698650674662669,0.25487256371814093,-0.3073463268365817,1481.3186813186812,96.95089614417581,33.51117369404528,
1770997159902.6135,0.44565217391304346,-5.532608695652174,-0.8695652173913043,-1.917414721723519,-8.907241172950329,-3.4829443447037702,4063.003663003663,1878.3882783882782,1.0,7.930977268956363,126.08786610878661,-15.572519083969466,-28.687022900763356,-9.022900763358779,-0.2773613193403298,0.25337331334332835,-0.3238380809595202,1497.4358974358972,96.9594676122312,33.51117369404528,
1770997159922.1482,0.33695652173913043,-5.532608695652174,-0.9239130434782609,-2.0275284260921604,-8.902453620586474,-3.557151406343507,4055.6776556776554,1855.6776556776556,1.0,7.930977268956363,126.08786610878661,-14.977099236641221,-25.053435114503817,-9.740458015267174,-0.26686656671664166,0.25037481259370314,-0.32083958020989506,1491.5750915750914,96.9537532973774,33.51117369404528,
1770997159941.683,0.31521739130434784,-5.532608695652174,-0.8804347826086957,-2.056253740275284,-8.878515858767205,-3.533213644524237,4083.5164835164833,1893.7728937728937,1.0,7.930977268956363,126.08786610878661,-13.862595419847327,-23.61832061068702,-10.15267175572519,-0.272863568215892,0.2578710644677661,-0.3073463268365817,1467.3992673992673,96.9537532973774,33.51117369404528,
1770997159961.218,0.358695652173913,-5.532608695652174,-0.7717391304347826,-2.0059844404548173,-8.895272292040694,-3.4111310592459603,4082.0512820512818,1898.9010989010987,1.0,7.930977268956363,126.08786610878661,-13.770992366412214,-22.946564885496183,-9.435114503816793,-0.27586206896551724,0.2518740629685157,-0.3193403298350824,1420.5128205128203,96.9594676122312,33.51117369404528,
1770997159980.753,0.43478260869565216,-5.58695652173913,-0.75,-1.9557151406343507,-8.957510472770796,-3.3584679832435667,4065.9340659340655,1882.051282051282,1.0,7.930977268956363,126.08786610878661,-14.076335877862595,-22.229007633587784,-7.435114503816793,-0.2653673163418291,0.2773613193403298,-0.3328335832083958,1358.2417582417581,96.9537532973774,33.51117369404528,
1770997160000.2878,0.4782608695652174,-5.684782608695652,-0.7065217391304348,-1.9389587073608616,-9.012567324955116,-3.3417115499700776,4060.07326007326,1870.3296703296703,1.0,7.930977268956363,126.08786610878661,-14.366412213740457,-20.030534351145036,-5.511450381679389,-0.27436281859070466,0.272863568215892,-0.3238380809595202,1300.3663003663003,96.9537532973774,33.51117369404528,
1770997160019.8228,0.44565217391304346,-5.728260869565217,-0.7065217391304348,-1.907839616995811,-9.103530819868341,-3.324955116696589,4055.6776556776554,1853.4798534798533,1.0,7.930977268956363,126.08786610878661,-14.885496183206106,-18.412213740458014,-4.641221374045801,-0.26836581709145424,0.2383808095952024,-0.32533733133433285,1260.8058608058607,96.9594676122312,33.51117369404528,
1770997160039.3574,0.46739130434782605,-5.739130434782608,-0.6956521739130435,-1.9341711549970078,-9.149012567324954,-3.317773788150808,4082.0512820512818,1887.179487179487,1.0,7.930977268956363,126.08786610878661,-14.351145038167939,-18.35114503816794,-4.259541984732825,-0.27436281859070466,0.24137931034482757,-0.31334332833583206,1247.6190476190475,96.9537532973774,33.51117369404528,
1770997160058.8923,0.4782608695652174,-5.739130434782608,-0.7065217391304348,-1.9126271693596648,-9.151406343506881,-3.293836026331538,4061.5384615384614,1865.9340659340658,1.0,7.930977268956363,126.08786610878661,-12.82442748091603,-18.564885496183205,-3.66412213740458,-0.27436281859070466,0.25337331334332835,-0.3118440779610195,1266.6666666666665,96.95089614417581,33.51117369404528,
1770997160078.4272,0.532608695652174,-5.717391304347826,-0.6521739130434783,-1.8575703171753442,-9.132256134051467,-3.2435667265110713,4055.6776556776554,1852.0146520146518,1.0,7.930977268956363,126.08786610878661,-11.49618320610687,-18.916030534351144,-3.847328244274809,-0.280359820089955,0.25337331334332835,-0.3193403298350824,1284.2490842490843,96.95661045339587,33.51117369404528,
1770997160097.9622,0.5869565217391304,-5.75,-0.6413043478260869,-1.8049072411729503,-9.122681029323758,-3.214841412327947,4082.0512820512818,1887.179487179487,1.0,7.930977268956363,126.08786610878661,-9.49618320610687,-17.236641221374047,-3.7862595419847325,-0.2773613193403298,0.2563718140929535,-0.328335832083958,1297.4358974358975,96.9594676122312,33.51117369404528,
1770997160117.497,0.6086956521739131,-5.782608695652174,-0.6739130434782609,-1.7354877318970676,-9.17773788150808,-3.2363853979652903,4080.5860805860802,1895.970695970696,1.0,7.936082500542431,126.00675458346736,-7.66412213740458,-13.96946564885496,-3.7557251908396947,-0.272863568215892,0.2578710644677661,-0.31784107946026985,1312.087912087912,96.9537532973774,33.51117369404528,
1770997160137.032,0.5869565217391304,-5.771739130434782,-0.75,-1.7785757031717535,-9.196888090963494,-3.3153800119688808,4083.5164835164833,1905.4945054945053,1.0,7.930977268956363,126.08786610878661,-6.534351145038167,-9.709923664122137,-4.687022900763359,-0.272863568215892,0.24587706146926536,-0.32233883058470764,1321.6117216117216,96.9537532973774,33.51117369404528,
1770997160156.567,0.5652173913043478,-5.728260869565217,-0.7391304347826086,-1.7833632555356074,-9.134649910233392,-3.324955116696589,4083.5164835164833,1908.4249084249084,1.0,7.930977268956363,126.08786610878661,-5.435114503816794,-7.267175572519084,-6.091603053435114,-0.27436281859070466,0.24287856071964017,-0.32083958020989506,1323.8095238095236,96.9537532973774,33.51117369404528,
1770997160176.1016,0.5652173913043478,-5.630434782608695,-0.7065217391304348,-1.7833632555356074,-9.06523040095751,-3.3536804308797126,4083.5164835164833,1909.1575091575091,1.0,7.930977268956363,126.08786610878661,-4.8396946564885495,-6.351145038167939,-6.580152671755725,-0.2698650674662669,0.26836581709145424,-0.3268365817091454,1312.8205128205127,96.9537532973774,33.51117369404528,
1770997160195.6365,0.5760869565217391,-5.608695652173913,-0.717391304347826,-1.7666068222621185,-8.991023339317774,-3.3273488928785158,4083.5164835164833,1909.1575091575091,1.0,7.930977268956363,126.08786610878661,-4.67175572519084,-7.190839694656488,-5.679389312977099,-0.2788605697151424,0.24137931034482757,-0.31334332833583206,1292.3076923076922,96.9537532973774,33.51117369404528,
1770997160215.1714,0.5652173913043478,-5.684782608695652,-0.75,-1.7857570317175344,-9.062836624775583,-3.3393177737881508,4063.003663003663,1878.3882783882782,1.0,7.930977268956363,126.08786610878661,-4.65648854961832,-8.13740458015267,-4.809160305343512,-0.272863568215892,0.24737631184407796,-0.3313343328335832,1270.3296703296703,96.95661045339587,33.51117369404528,
1770997160234.7063,0.5543478260869565,-5.706521739130435,-0.8152173913043478,-1.7881508078994615,-9.101137043686416,-3.3752244165170557,4084.981684981685,1895.970695970696,1.0,7.930977268956363,126.08786610878661,-4.793893129770992,-8.351145038167939,-4.198473282442748,-0.272863568215892,0.25487256371814093,-0.32083958020989506,1253.4798534798533,96.9594676122312,33.51117369404528,
1770997160254.2412,0.5434782608695652,-5.695652173913043,-0.858695652173913,-1.8120885697187312,-9.11310592459605,-3.4757630161579893,4084.981684981685,1900.3663003663003,1.0,7.930977268956363,126.08786610878661,-4.488549618320611,-7.526717557251908,-4.305343511450381,-0.2698650674662669,0.24737631184407796,-0.32533733133433285,1258.6080586080586,96.9537532973774,33.51117369404528,
1770997160273.776,0.5,-5.630434782608695,-0.8695652173913043,-1.8073010173548774,-9.046080191502094,-3.4829443447037702,4082.0512820512818,1901.098901098901,1.0,7.930977268956363,126.08786610878661,-4.351145038167939,-6.5038167938931295,-3.801526717557252,-0.27586206896551724,0.25037481259370314,-0.3328335832083958,1268.8644688644688,96.95661045339587,33.51117369404528,
1770997160293.3108,0.44565217391304346,-5.554347826086956,-0.75,-1.9150209455415919,-8.976660682226212,-3.3919808497905444,4083.5164835164833,1906.9597069597069,1.0,7.936082500542431,126.00675458346736,-4.106870229007633,-7.526717557251908,-3.9541984732824424,-0.2698650674662669,0.27136431784107945,-0.34182908545727136,1268.8644688644688,96.9594676122312,33.51117369404528,
1770997160312.8457,0.5543478260869565,-5.543478260869565,-0.7065217391304348,-1.8073010173548774,-8.928785158587672,-3.312986235786954,4064.468864468864,1885.7142857142856,1.0,7.936082500542431,126.00675458346736,-4.809160305343512,-8.030534351145038,-3.282442748091603,-0.2788605697151424,0.2698650674662669,-0.335832083958021,1260.8058608058607,96.9537532973774,33.51117369404528,
1770997160332.3806,0.5652173913043478,-5.521739130434782,-0.6521739130434783,-1.7929383602633153,-8.88330341113106,-3.245960502692998,4083.5164835164833,1902.5641025641025,1.0,7.936082500542431,126.00675458346736,-4.99236641221374,-7.755725190839694,-2.0,-0.26836581709145424,0.2623688155922039,-0.328335832083958,1257.142857142857,96.95661045339587,33.51117369404528,
1770997160351.9155,0.4782608695652174,-5.5978260869565215,-0.6521739130434783,-1.859964093357271,-8.98623578695392,-3.2435667265110713,4082.0512820512818,1901.098901098901,1.0,7.936082500542431,126.00675458346736,-5.450381679389313,-6.977099236641221,-1.465648854961832,-0.2653673163418291,0.24287856071964017,-0.3268365817091454,1295.970695970696,96.9537532973774,33.51117369404528,
1770997160371.4504,0.41304347826086957,-5.695652173913043,-0.6413043478260869,-1.917414721723519,-9.070017953321365,-3.2244165170556554,4063.003663003663,1876.1904761904761,1.0,7.936082500542431,126.00675458346736,-5.022900763358779,-6.183206106870228,-2.687022900763359,-0.2788605697151424,0.25487256371814093,-0.34332833583208394,1410.989010989011,96.96232477388334,33.51117369404528,
1770997160390.9854,0.45652173913043476,-5.728260869565217,-0.6195652173913043,-1.9269898264512269,-9.117893476959903,-3.222022740873728,4084.981684981685,1895.2380952380952,1.0,7.930977268956363,126.08786610878661,-3.8167938931297707,-5.572519083969466,-3.2213740458015265,-0.27436281859070466,0.2518740629685157,-0.32533733133433285,1583.8827838827838,96.96232477388334,33.51117369404528,
1770997160410.52,0.45652173913043476,-5.760869565217392,-0.5869565217391304,-1.9222022740873728,-9.13704368641532,-3.202872531418312,4083.5164835164833,1905.4945054945053,1.0,7.936082500542431,126.00675458346736,-3.0839694656488548,-4.549618320610687,-3.5572519083969465,-0.27136431784107945,0.2578710644677661,-0.335832083958021,1778.7545787545787,96.95661045339587,33.51117369404528,
1770997160430.055,0.44565217391304346,-5.739130434782608,-0.5978260869565217,-1.9245960502692998,-9.132256134051467,-3.1669658886894076,4083.5164835164833,1908.4249084249084,1.0,7.936082500542431,126.00675458346736,-2.2900763358778624,-2.381679389312977,-3.633587786259542,-0.2788605697151424,0.25037481259370314,-0.3268365817091454,1935.5311355311353,96.95661045339587,33.51117369404528,
1770997160449.5898,0.34782608695652173,-5.706521739130435,-0.5760869565217391,-1.9676840215439857,-9.153800119688809,-3.202872531418312,4084.981684981685,1904.7619047619046,1.0,7.936082500542431,126.00675458346736,-0.9465648854961831,-4.6106870229007635,-4.381679389312977,-0.27436281859070466,0.2638680659670165,-0.328335832083958,2012.4542124542122,96.9537532973774,33.51117369404528,
1770997160469.1248,0.43478260869565216,-5.782608695652174,-0.6630434782608695,-1.8479952124476362,-9.175344105326152,-3.1932974266906045,4067.399267399267,1879.120879120879,1.0,7.936082500542431,126.00675458346736,-1.9541984732824427,-0.7786259541984732,-2.732824427480916,-0.280359820089955,0.24437781109445278,-0.33433283358320837,1999.2673992673992,96.9594676122312,33.51117369404528,
1770997160488.6597,0.30434782608695654,-5.793478260869565,-0.717391304347826,-2.0227408737283064,-9.170556552962298,-3.257929383602633,4084.981684981685,1895.970695970696,1.0,7.936082500542431,126.00675458346736,-1.0687022900763359,-1.099236641221374,-2.1068702290076335,-0.27436281859070466,0.2653673163418291,-0.328335832083958,1926.7399267399267,96.9594676122312,33.51117369404528,
1770997160508.1946,0.4891304347826087,-5.728260869565217,-0.5978260869565217,-1.9293836026331537,-9.211250748055056,-3.1813285457809695,4083.5164835164833,1904.7619047619046,1.0,7.930977268956363,126.08786610878661,-0.6412213740458015,-0.015267175572519083,-3.32824427480916,-0.2698650674662669,0.25037481259370314,-0.3328335832083958,1802.9304029304028,96.9594676122312,33.51117369404528,
1770997160527.7292,0.40217391304347827,-5.728260869565217,-0.7282608695652174,-2.1496110113704368,-9.093955715140634,-3.3943746259724716,4061.5384615384614,1871.0622710622708,1.0,7.936082500542431,126.00675458346736,-2.6564885496183206,-2.213740458015267,-2.9618320610687023,-0.2773613193403298,0.2563718140929535,-0.3268365817091454,1651.2820512820513,96.95661045339587,33.51117369404528,
1770997160547.2642,0.717391304347826,-5.695652173913043,-0.6413043478260869,-1.6612806702573308,-9.046080191502094,-3.1861160981448235,4057.142857142857,1859.3406593406592,1.0,7.936082500542431,126.00675458346736,-2.3053435114503817,-3.450381679389313,-3.8625954198473282,-0.27586206896551724,0.2563718140929535,-0.34182908545727136,1498.168498168498,96.9594676122312,33.51117369404528,
1770997160566.799,0.4891304347826087,-5.706521739130435,-0.6847826086956521,-1.8240574506283662,-9.139437462597247,-3.3034111310592458,4084.981684981685,1889.3772893772893,1.0,7.936082500542431,126.00675458346736,-2.717557251908397,-1.3282442748091603,-0.5954198473282443,-0.2698650674662669,0.2623688155922039,-0.335832083958021,1390.4761904761904,96.9594676122312,33.51117369404528,
1770997160586.334,0.5543478260869565,-5.739130434782608,-0.717391304347826,-1.8479952124476362,-9.067624177139438,-3.3081986834231,4082.0512820512818,1897.4358974358972,1.0,7.936082500542431,126.00675458346736,-1.7404580152671756,-1.0229007633587786,-1.7251908396946565,-0.26686656671664166,0.26686656671664166,-0.3268365817091454,1342.8571428571427,96.95661045339587,33.51117369404528,
1770997160605.869,0.6630434782608695,-5.793478260869565,-0.717391304347826,-1.7211250748055056,-9.196888090963494,-3.3153800119688808,4083.5164835164833,1905.4945054945053,1.0,7.936082500542431,126.00675458346736,-1.5877862595419847,0.061068702290076333,-1.450381679389313,-0.2848575712143928,0.2368815592203898,-0.33883058470764615,1340.6593406593406,96.9537532973774,33.51117369404528,
1770997160625.4038,0.5869565217391304,-5.815217391304348,-0.7282608695652174,-1.7378815080789947,-9.211250748055056,-3.3464991023339317,4068.8644688644686,1885.7142857142856,1.0,7.936082500542431,126.00675458346736,-1.5419847328244274,2.549618320610687,-0.8396946564885496,-0.27436281859070466,0.2563718140929535,-0.3313343328335832,1368.4981684981683,96.9537532973774,33.51117369404528,
1770997160644.9387,0.5760869565217391,-5.83695652173913,-0.717391304347826,-1.7833632555356074,-9.249551166965889,-3.3153800119688808,4054.212454212454,1863.003663003663,1.0,7.936082500542431,126.00675458346736,-1.9694656488549618,3.0534351145038165,-1.2519083969465647,-0.272863568215892,0.25487256371814093,-0.35082458770614694,1402.197802197802,96.9537532973774,33.51117369404528,
1770997160664.4734,0.5978260869565217,-5.826086956521739,-0.6630434782608695,-1.7546379413524835,-9.249551166965889,-3.28426092160383,4082.0512820512818,1890.1098901098899,1.0,7.936082500542431,126.00675458346736,-2.763358778625954,3.2213740458015265,-1.1908396946564885,-0.2773613193403298,0.25037481259370314,-0.34182908545727136,1443.2234432234432,96.9594676122312,33.51117369404528,
1770997160684.0083,0.6413043478260869,-5.793478260869565,-0.6847826086956521,-1.7067624177139438,-9.206463195691203,-3.296229802513465,4058.6080586080584,1866.6666666666665,1.0,7.936082500542431,126.00675458346736,-3.3740458015267176,3.877862595419847,-0.183206106870229,-0.2698650674662669,0.25037481259370314,-0.34332833583208394,1480.5860805860805,96.95661045339587,33.51117369404528,
1770997160703.5432,0.6086956521739131,-5.739130434782608,-0.6956521739130435,-1.7402752842609215,-9.146618791143029,-3.3081986834231,4083.5164835164833,1896.7032967032965,1.0,7.936082500542431,126.00675458346736,-3.618320610687023,3.282442748091603,-0.16793893129770993,-0.27436281859070466,0.2623688155922039,-0.328335832083958,1503.2967032967033,96.9594676122312,33.51117369404528,
1770997160723.078,0.6086956521739131,-5.739130434782608,-0.6304347826086957,-1.7426690604428485,-9.125074805505685,-3.2363853979652903,4082.0512820512818,1899.6336996336995,1.0,7.936082500542431,126.00675458346736,-3.1908396946564883,2.1068702290076335,0.183206106870229,-0.27436281859070466,0.2698650674662669,-0.3268365817091454,1510.6227106227104,96.9594676122312,33.51117369404528,
1770997160742.613,0.6086956521739131,-5.728260869565217,-0.5652173913043478,-1.7474566128067026,-9.134649910233392,-3.1813285457809695,4080.5860805860802,1899.6336996336995,1.0,7.930977268956363,126.08786610878661,-3.5267175572519083,2.6259541984732824,-0.10687022900763359,-0.26836581709145424,0.24887556221889054,-0.328335832083958,1502.5641025641025,96.96518193835237,33.51117369404528,
1770997160762.148,0.5869565217391304,-5.760869565217392,-0.6086956521739131,-1.7809694793536803,-9.18491921005386,-3.1837223219628963,4058.6080586080584,1868.8644688644688,1.0,7.936082500542431,126.00675458346736,-2.9618320610687023,3.0076335877862594,0.0,-0.26686656671664166,0.2518740629685157,-0.3373313343328336,1476.923076923077,96.96518193835237,33.51117369404528,
1770997160781.6826,0.532608695652174,-5.793478260869565,-0.6086956521739131,-1.840813883901855,-9.199281867145421,-3.2076600837821663,4070.32967032967,1876.923076923077,1.0,7.936082500542431,126.00675458346736,-2.7022900763358777,3.7557251908396947,-0.32061068702290074,-0.2788605697151424,0.24587706146926536,-0.3373313343328336,1456.4102564102564,96.9594676122312,33.51117369404528,
1770997160801.2175,0.45652173913043476,-5.782608695652174,-0.5869565217391304,-1.9102333931777378,-9.180131657690005,-3.1861160981448235,4055.6776556776554,1854.9450549450548,1.0,7.936082500542431,126.00675458346736,-2.900763358778626,4.244274809160305,-0.7480916030534351,-0.2773613193403298,0.25037481259370314,-0.3313343328335832,1441.7582417582416,96.9594676122312,33.51117369404528,
1770997160820.7524,0.5,-5.695652173913043,-0.5652173913043478,-1.871932974266906,-9.115499700777978,-3.1430281268701377,4082.0512820512818,1887.9120879120878,1.0,7.936082500542431,126.00675458346736,-2.916030534351145,4.244274809160305,-1.0076335877862594,-0.2698650674662669,0.2518740629685157,-0.3298350824587706,1410.2564102564102,96.9594676122312,33.51117369404528,
1770997160840.2874,0.5217391304347826,-5.717391304347826,-0.532608695652174,-1.8360263315380012,-9.101137043686416,-3.1310592459605027,4060.07326007326,1871.7948717948716,1.0,7.936082500542431,126.00675458346736,-3.099236641221374,4.534351145038168,-0.732824427480916,-0.272863568215892,0.24587706146926536,-0.335832083958021,1353.8461538461538,96.9537532973774,33.51117369404528,
1770997160859.8225,0.5217391304347826,-5.760869565217392,-0.5760869565217391,-1.8432076600837821,-9.101137043686416,-3.1190903650508677,4084.981684981685,1893.040293040293,1.0,7.930977268956363,126.08786610878661,-3.312977099236641,5.541984732824427,0.16793893129770993,-0.272863568215892,0.2653673163418291,-0.335832083958021,1305.4945054945053,96.9594676122312,33.51117369404528,
1770997160879.3572,0.4891304347826087,-5.760869565217392,-0.5652173913043478,-1.869539198084979,-9.122681029323758,-3.1621783363255536,4083.5164835164833,1904.7619047619046,1.0,7.936082500542431,126.00675458346736,-3.49618320610687,6.1679389312977095,0.3969465648854962,-0.2773613193403298,0.24287856071964017,-0.3313343328335832,1265.9340659340658,96.9594676122312,33.51117369404528,
1770997160898.892,0.46739130434782605,-5.739130434782608,-0.5434782608695652,-1.8982645122681028,-9.146618791143029,-3.1502094554159186,4082.0512820512818,1901.8315018315018,1.0,7.936082500542431,126.00675458346736,-3.3893129770992365,6.778625954198473,0.21374045801526717,-0.2653673163418291,0.26836581709145424,-0.3373313343328336,1238.8278388278388,96.95661045339587,33.51117369404528,
1770997160918.4268,0.5217391304347826,-5.706521739130435,-0.5543478260869565,-1.871932974266906,-9.110712148414123,-3.1334530221424295,4058.6080586080584,1869.5970695970695,1.0,7.930977268956363,126.08786610878661,-3.5267175572519083,6.030534351145038,-0.015267175572519083,-0.27436281859070466,0.26686656671664166,-0.34332833583208394,1227.106227106227,96.9537532973774,33.51117369404528,
1770997160937.9617,0.532608695652174,-5.706521739130435,-0.5652173913043478,-1.8240574506283662,-9.096349491322561,-3.1119090365050868,4073.260073260073,1876.923076923077,1.0,7.930977268956363,126.08786610878661,-3.8167938931297707,6.1679389312977095,0.16793893129770993,-0.272863568215892,0.2518740629685157,-0.335832083958021,1217.5824175824175,96.96232477388334,33.51117369404528,
1770997160957.4966,0.5108695652173912,-5.739130434782608,-0.5760869565217391,-1.8384201077199283,-9.132256134051467,-3.1502094554159186,4055.6776556776554,1854.9450549450548,1.0,7.930977268956363,126.08786610878661,-3.8167938931297707,6.473282442748092,0.4580152671755725,-0.27136431784107945,0.25487256371814093,-0.34182908545727136,1219.7802197802198,96.9594676122312,33.51117369404528,
1770997160977.0315,0.4891304347826087,-5.706521739130435,-0.5652173913043478,-1.87672052663076,-9.11310592459605,-3.1502094554159186,4083.5164835164833,1893.7728937728937,1.0,7.936082500542431,126.00675458346736,-4.412213740458015,5.893129770992366,0.5801526717557252,-0.2698650674662669,0.2578710644677661,-0.3493253373313343,1229.3040293040292,96.96232477388334,33.51117369404528,
1770997160996.5664,0.532608695652174,-5.728260869565217,-0.5217391304347826,-1.8360263315380012,-9.122681029323758,-3.0999401555954518,4060.07326007326,1873.260073260073,1.0,7.930977268956363,126.08786610878661,-4.3206106870229,5.450381679389313,0.04580152671755725,-0.26836581709145424,0.25337331334332835,-0.3238380809595202,1248.3516483516482,96.9594676122312,33.51117369404528,
1770997161016.1013,0.5543478260869565,-5.826086956521739,-0.5,-1.8168761220825853,-9.213644524236983,-3.104727707959306,4055.6776556776554,1854.212454212454,1.0,7.936082500542431,126.00675458346736,-4.152671755725191,4.900763358778626,0.366412213740458,-0.26686656671664166,0.2698650674662669,-0.3373313343328336,1271.7948717948716,96.96518193835237,33.51117369404528,
1770997161035.636,0.4891304347826087,-5.804347826086956,-0.5760869565217391,-1.8479952124476362,-9.242369838420107,-3.1430281268701377,4083.5164835164833,1893.7728937728937,1.0,7.936082500542431,126.00675458346736,-4.381679389312977,6.244274809160305,0.47328244274809156,-0.27586206896551724,0.26836581709145424,-0.3448275862068965,1306.9597069597069,96.95661045339587,33.51117369404528,
1770997161055.171,0.46739130434782605,-5.75,-0.532608695652174,-1.87672052663076,-9.170556552962298,-3.1382405745062836,4082.0512820512818,1898.168498168498,1.0,7.930977268956363,126.08786610878661,-3.877862595419847,7.0534351145038165,0.183206106870229,-0.26686656671664166,0.2638680659670165,-0.3403298350824588,1320.14652014652,96.9594676122312,33.51117369404528,
1770997161074.7058,0.5434782608695652,-5.673913043478261,-0.5,-1.864751645721125,-9.091561938958707,-3.097546379413525,4058.6080586080584,1868.8644688644688,1.0,7.936082500542431,126.00675458346736,-3.3893129770992365,6.305343511450381,-0.3969465648854962,-0.2638680659670165,0.2653673163418291,-0.33433283358320837,1323.8095238095236,96.95661045339587,33.51117369404528,
1770997161094.2407,0.5869565217391304,-5.5978260869565215,-0.4782608695652174,-1.7809694793536803,-9.012567324955116,-3.0712148414123277,4082.0512820512818,1891.5750915750914,1.0,7.930977268956363,126.08786610878661,-3.3893129770992365,4.885496183206107,0.8702290076335878,-0.27586206896551724,0.2518740629685157,-0.335832083958021,1318.6813186813185,96.9594676122312,33.51117369404528,
1770997161113.7756,0.532608695652174,-5.684782608695652,-0.5108695652173912,-1.8096947935368042,-9.038898862956314,-3.056852184320766,4054.212454212454,1863.7362637362637,1.0,7.936082500542431,126.00675458346736,-3.877862595419847,3.5572519083969465,1.83206106870229,-0.26686656671664166,0.24887556221889054,-0.33883058470764615,1308.4249084249084,96.9537532973774,33.51117369404528,
1770997161133.3103,0.5217391304347826,-5.728260869565217,-0.5108695652173912,-1.8479952124476362,-9.151406343506881,-3.104727707959306,4082.0512820512818,1890.1098901098899,1.0,7.936082500542431,126.00675458346736,-4.183206106870228,3.114503816793893,1.618320610687023,-0.27136431784107945,0.2518740629685157,-0.33433283358320837,1307.6923076923076,96.9594676122312,33.51117369404528,
1770997161152.8452,0.4782608695652174,-5.75,-0.5108695652173912,-1.886295631358468,-9.134649910233392,-3.0999401555954518,4058.6080586080584,1866.6666666666665,1.0,7.936082500542431,126.00675458346736,-4.091603053435114,2.717557251908397,0.33587786259541985,-0.27586206896551724,0.26836581709145424,-0.3328335832083958,1361.904761904762,96.95661045339587,33.51117369404528,
1770997161172.38,0.45652173913043476,-5.739130434782608,-0.44565217391304346,-1.907839616995811,-9.139437462597247,-3.032914422501496,4055.6776556776554,1852.0146520146518,1.0,7.936082500542431,126.00675458346736,-4.030534351145038,1.8778625954198473,-0.22900763358778625,-0.27586206896551724,0.27436281859070466,-0.34632683658170915,1490.10989010989,96.9594676122312,33.51117369404528,
1770997161191.915,0.5217391304347826,-5.695652173913043,-0.46739130434782605,-1.8384201077199283,-9.093955715140634,-3.0089766606822264,4083.5164835164833,1893.040293040293,1.0,7.936082500542431,126.00675458346736,-4.259541984732825,1.3435114503816794,-0.8702290076335878,-0.27586206896551724,0.24287856071964017,-0.335832083958021,1683.5164835164835,96.95661045339587,33.51117369404528,
1770997161211.45,0.5217391304347826,-5.695652173913043,-0.4782608695652174,-1.8120885697187312,-9.08916816277678,-3.035308198683423,4082.0512820512818,1898.9010989010987,1.0,7.936082500542431,126.00675458346736,-3.5572519083969465,0.6564885496183206,-1.3435114503816794,-0.2698650674662669,0.2383808095952024,-0.3298350824587706,1897.4358974358972,96.95661045339587,33.51117369404528,
1770997161230.9849,0.45652173913043476,-5.717391304347826,-0.5,-1.895870736086176,-9.115499700777978,-3.0903650508677436,4082.0512820512818,1900.3663003663003,1.0,7.936082500542431,126.00675458346736,-3.541984732824427,1.3129770992366412,0.0,-0.272863568215892,0.2563718140929535,-0.3268365817091454,2068.8644688644686,96.9594676122312,33.51117369404528,
1770997161250.5198,0.43478260869565216,-5.695652173913043,-0.5543478260869565,-1.9198084979054457,-9.086774386594854,-3.1573907839616995,4083.5164835164833,1906.9597069597069,1.0,7.936082500542431,126.00675458346736,-3.068702290076336,1.7099236641221374,-0.5190839694656488,-0.2698650674662669,0.24287856071964017,-0.3238380809595202,2161.904761904762,96.95661045339587,33.51117369404528,
1770997161270.0547,0.4782608695652174,-5.706521739130435,-0.5,-1.8982645122681028,-9.115499700777978,-3.1238779174147218,4082.0512820512818,1902.5641025641025,1.0,7.936082500542431,126.00675458346736,-3.480916030534351,0.0,-1.4198473282442747,-0.27586206896551724,0.25037481259370314,-0.328335832083958,2147.252747252747,96.96232477388334,33.51117369404528,
1770997161289.5894,0.45652173913043476,-5.728260869565217,-0.5217391304347826,-1.9126271693596648,-9.12028725314183,-3.0712148414123277,4082.0512820512818,1901.098901098901,1.0,7.936082500542431,126.00675458346736,-4.122137404580153,-0.030534351145038167,-1.3435114503816794,-0.27436281859070466,0.24137931034482757,-0.3268365817091454,2041.7582417582416,96.9594676122312,33.51117369404528,
1770997161309.1245,0.5543478260869565,-5.782608695652174,-0.5760869565217391,-1.869539198084979,-9.139437462597247,-3.1597845601436263,4058.6080586080584,1868.8644688644688,1.0,7.941187732128498,125.92574734811959,-4.885496183206107,-1.0229007633587786,-1.2519083969465647,-0.272863568215892,0.24287856071964017,-0.33883058470764615,1884.249084249084,96.9537532973774,33.51117369404528,
1770997161328.6592,0.46739130434782605,-5.804347826086956,-0.6086956521739131,-1.8312387791741471,-9.223219628964692,-3.1813285457809695,4055.6776556776554,1846.153846153846,1.0,7.936082500542431,126.00675458346736,-5.129770992366412,-2.2748091603053435,-1.5572519083969465,-0.2698650674662669,0.24587706146926536,-0.328335832083958,1725.2747252747251,96.9594676122312,33.51117369404528,
1770997161348.194,0.5,-5.804347826086956,-0.5869565217391304,-1.9293836026331537,-9.2327947336924,-3.1669658886894076,4082.0512820512818,1884.9816849816848,1.0,7.941187732128498,125.92574734811959,-4.473282442748092,-3.282442748091603,-1.83206106870229,-0.27436281859070466,0.27136431784107945,-0.3373313343328336,1586.8131868131868,96.9537532973774,33.51117369404528,
1770997161367.729,0.5760869565217391,-5.771739130434782,-0.5434782608695652,-1.82884500299222,-9.187312986235787,-3.128665469778576,4079.1208791208787,1889.3772893772893,1.0,7.941187732128498,125.92574734811959,-4.122137404580153,-4.625954198473282,-2.7022900763358777,-0.2623688155922039,0.22938530734632684,-0.33883058470764615,1486.4468864468863,96.9537532973774,33.51117369404528,
1770997161387.264,0.5652173913043478,-5.739130434782608,-0.5760869565217391,-1.7450628366247756,-9.139437462597247,-3.1214841412327945,4055.6776556776554,1858.6080586080584,1.0,7.936082500542431,126.00675458346736,-4.152671755725191,-3.7404580152671754,-2.748091603053435,-0.2608695652173913,0.24287856071964017,-0.3373313343328336,1428.5714285714284,96.9594676122312,33.51117369404528,
1770997161406.7986,0.5652173913043478,-5.717391304347826,-0.5652173913043478,-1.7881508078994615,-9.115499700777978,-3.1573907839616995,4077.655677655677,1887.179487179487,1.0,7.941187732128498,125.92574734811959,-4.473282442748092,-3.6030534351145036,-2.2900763358778624,-0.272863568215892,0.24887556221889054,-0.34332833583208394,1421.9780219780218,96.9594676122312,33.51117369404528,
1770997161426.3335,0.5217391304347826,-5.739130434782608,-0.6195652173913043,-1.85278276481149,-9.103530819868341,-3.1980849790544585,4058.6080586080584,1865.201465201465,1.0,7.941187732128498,125.92574734811959,-3.9083969465648853,-3.16030534351145,-2.213740458015267,-0.26686656671664166,0.24287856071964017,-0.33883058470764615,1465.9340659340658,96.95089614417581,33.51117369404528,
1770997161445.8684,0.5108695652173912,-5.706521739130435,-0.6304347826086957,-1.8384201077199283,-9.098743267504489,-3.2076600837821663,4084.981684981685,1891.5750915750914,1.0,7.941187732128498,125.92574734811959,-4.106870229007633,-4.412213740458015,-2.9770992366412212,-0.27586206896551724,0.25337331334332835,-0.32533733133433285,1538.4615384615383,96.95661045339587,33.51117369404528,
1770997161465.4033,0.5217391304347826,-5.760869565217392,-0.6195652173913043,-1.8551765409934171,-9.153800119688809,-3.2196289646918013,4063.003663003663,1873.9926739926739,1.0,7.941187732128498,125.92574734811959,-4.748091603053435,-5.435114503816794,-4.091603053435114,-0.2788605697151424,0.2638680659670165,-0.33433283358320837,1611.7216117216117,96.9537532973774,33.51117369404528,
1770997161484.9382,0.5108695652173912,-5.739130434782608,-0.6739130434782609,-1.8791143028126869,-9.144225014961101,-3.2483542788749253,4060.07326007326,1867.3992673992673,1.0,7.941187732128498,125.92574734811959,-5.083969465648854,-7.1603053435114505,-3.679389312977099,-0.27586206896551724,0.26686656671664166,-0.34182908545727136,1676.1904761904761,96.9537532973774,33.51117369404528,
1770997161504.4731,0.4782608695652174,-5.760869565217392,-0.6521739130434783,-1.8910831837223219,-9.16098144823459,-3.2483542788749253,4086.4468864468863,1898.168498168498,1.0,7.941187732128498,125.92574734811959,-5.435114503816794,-8.763358778625953,-3.9083969465648853,-0.26686656671664166,0.26686656671664166,-0.34182908545727136,1710.6227106227104,96.9594676122312,33.51117369404528,
1770997161524.008,0.4782608695652174,-5.728260869565217,-0.6195652173913043,-1.917414721723519,-9.12986235786954,-3.2555356074207062,4084.981684981685,1901.098901098901,1.0,7.941187732128498,125.92574734811959,-5.7251908396946565,-9.98473282442748,-4.366412213740458,-0.27436281859070466,0.25337331334332835,-0.3403298350824588,1720.14652014652,96.9537532973774,33.51117369404528,
1770997161543.5427,0.5,-5.739130434782608,-0.6630434782608695,-1.883901855176541,-9.12028725314183,-3.272292040694195,4060.07326007326,1874.7252747252746,1.0,7.941187732128498,125.92574734811959,-5.923664122137405,-10.473282442748092,-4.061068702290076,-0.2698650674662669,0.24737631184407796,-0.3403298350824588,1703.296703296703,96.95661045339587,33.51117369404528,
1770997161563.0776,0.43478260869565216,-5.695652173913043,-0.6630434782608695,-1.917414721723519,-9.067624177139438,-3.265110712148414,4080.5860805860802,1892.3076923076922,1.0,7.941187732128498,125.92574734811959,-5.633587786259541,-10.625954198473282,-3.4351145038167936,-0.2638680659670165,0.24737631184407796,-0.3448275862068965,1668.8644688644688,96.95661045339587,33.51117369404528,
1770997161641.1255,0.33695652173913043,-5.684782608695652,-0.6521739130434783,-2.061041292639138,-9.067624177139438,-3.2675044883303412,4058.6080586080584,1866.6666666666665,1.0,7.936082500542431,126.00675458346736,-4.763358778625954,-8.625954198473282,-3.83206106870229,-0.2773613193403298,0.2353823088455772,-0.3403298350824588,1566.3003663003662,96.9594676122312,33.51117369404528,
1770997161660.752,0.32608695652173914,-5.6521739130434785,-0.6847826086956521,-2.0658288450029922,-9.031717534410532,-3.265110712148414,4087.912087912088,1898.9010989010987,1.0,7.941187732128498,125.92574734811959,-4.106870229007633,-7.648854961832061,-4.9465648854961835,-0.26686656671664166,0.2578710644677661,-0.3328335832083958,1557.5091575091574,96.95661045339587,33.51117369404528,
1770997161680.2869,0.2934782608695652,-5.630434782608695,-0.6413043478260869,-2.087372830640335,-9.000598444045481,-3.28426092160383,4084.981684981685,1901.8315018315018,1.0,7.941187732128498,125.92574734811959,-4.137404580152672,-7.908396946564885,-4.366412213740458,-0.272863568215892,0.2563718140929535,-0.3448275862068965,1550.9157509157508,96.95661045339587,33.51117369404528,
1770997161699.8218,0.2391304347826087,-5.630434782608695,-0.6630434782608695,-2.116098144823459,-9.005385996409336,-3.301017354877319,4060.07326007326,1875.4578754578754,1.0,7.936082500542431,126.00675458346736,-4.2748091603053435,-7.2824427480916025,-3.3587786259541983,-0.27436281859070466,0.239880059970015,-0.35532233883058467,1543.5897435897434,96.96518193835237,33.51117369404528,
1770997161738.8,0.30434782608695654,-5.6521739130434785,-0.7934782608695652,-2.096947935368043,-9.024536205864752,-3.3584679832435667,4086.4468864468863,1905.4945054945053,1.0,7.941187732128498,125.92574734811959,-3.4351145038167936,-5.923664122137405,-2.213740458015267,-0.27586206896551724,0.24437781109445278,-0.35082458770614694,1559.7069597069597,96.95661045339587,33.51117369404528,
1770997161758.4265,0.2391304347826087,-5.6521739130434785,-0.7934782608695652,-2.1376421304608018,-9.036505086774387,-3.3919808497905444,4086.4468864468863,1909.1575091575091,1.0,7.936082500542431,126.00675458346736,-3.145038167938931,-2.1374045801526718,-1.7404580152671756,-0.27436281859070466,0.2593703148425787,-0.3523238380809595,1575.8241758241757,96.95502587252055,33.50112342545763,
1770997161777.9612,0.18478260869565216,-5.706521739130435,-0.7717391304347826,-2.2190305206463194,-9.084380610412927,-3.3824057450628366,4063.003663003663,1878.3882783882782,1.0,7.936082500542431,126.00675458346736,-3.0229007633587783,0.183206106870229,-2.259541984732824,-0.27136431784107945,0.2638680659670165,-0.35532233883058467,1597.069597069597,96.95216876280057,33.50112342545763,
1770997161797.496,0.2391304347826087,-5.6521739130434785,-0.7065217391304348,-2.1759425493716336,-9.060442848593656,-3.3488928785158585,4060.07326007326,1868.8644688644688,1.0,7.941187732128498,125.92574734811959,-2.8244274809160306,0.2748091603053435,-0.8854961832061068,-0.26836581709145424,0.2638680659670165,-0.3523238380809595,1600.0,96.95788298505728,33.50112342545763,
1770997161817.031,0.32608695652173914,-5.641304347826087,-0.6739130434782609,-2.106523040095751,-9.043686415320167,-3.289048473967684,4086.4468864468863,1898.9010989010987,1.0,7.936082500542431,126.00675458346736,-2.9618320610687023,3.7404580152671754,-0.6564885496183206,-0.26836581709145424,0.25487256371814093,-0.35082458770614694,1591.2087912087911,96.95502587252055,33.50112342545763,
1770997161836.566,0.34782608695652173,-5.6521739130434785,-0.6521739130434783,-2.063435068821065,-9.048473967684021,-3.2363853979652903,4083.5164835164833,1906.227106227106,1.0,7.936082500542431,126.00675458346736,-3.0839694656488548,6.824427480916031,-0.5038167938931297,-0.2638680659670165,0.2518740629685157,-0.3448275862068965,1566.3003663003662,96.95788298505728,33.50112342545763,
1770997161856.1008,0.358695652173913,-5.663043478260869,-0.6304347826086957,-2.0394973070017954,-9.050867743865949,-3.250748055056852,4060.07326007326,1876.1904761904761,1.0,7.936082500542431,126.00675458346736,-3.0381679389312977,8.564885496183205,-0.10687022900763359,-0.2698650674662669,0.2518740629685157,-0.3493253373313343,1528.2051282051282,96.95788298505728,33.50112342545763,
1770997161875.6355,0.41304347826086957,-5.6521739130434785,-0.5978260869565217,-1.9772591262716936,-9.06523040095751,-3.210053859964093,4086.4468864468863,1901.098901098901,1.0,7.936082500542431,126.00675458346736,-2.7938931297709924,8.839694656488549,0.38167938931297707,-0.27436281859070466,0.25337331334332835,-0.3493253373313343,1479.120879120879,96.95502587252055,33.50112342545763,
1770997161895.171,0.44565217391304346,-5.641304347826087,-0.5434782608695652,-1.9413524835427887,-9.024536205864752,-3.1526032315978454,4057.142857142857,1868.131868131868,1.0,7.936082500542431,126.00675458346736,-2.763358778625954,8.061068702290076,0.15267175572519084,-0.2773613193403298,0.2563718140929535,-0.34782608695652173,1449.8168498168498,96.95788298505728,33.50112342545763,
1770997161914.705,0.42391304347826086,-5.684782608695652,-0.5652173913043478,-1.9581089168162775,-9.050867743865949,-3.1621783363255536,4086.4468864468863,1898.168498168498,1.0,7.936082500542431,126.00675458346736,-2.5038167938931295,7.038167938931298,0.4580152671755725,-0.27586206896551724,0.2383808095952024,-0.33883058470764615,1510.6227106227104,96.95788298505728,33.50112342545763,
1770997161934.2402,0.358695652173913,-5.760869565217392,-0.532608695652174,-2.0323159784560145,-9.13704368641532,-3.092758827049671,4060.07326007326,1874.7252747252746,1.0,7.936082500542431,126.00675458346736,-3.2671755725190836,6.091603053435114,0.21374045801526717,-0.2653673163418291,0.26836581709145424,-0.35082458770614694,1642.4908424908424,96.95788298505728,33.50112342545763,
1770997161953.7751,0.40217391304347827,-5.75,-0.5869565217391304,-1.9844404548174746,-9.175344105326152,-3.1382405745062836,4058.6080586080584,1862.2710622710622,1.0,7.936082500542431,126.00675458346736,-2.748091603053435,5.083969465648854,-0.04580152671755725,-0.2638680659670165,0.2623688155922039,-0.3448275862068965,1844.6886446886447,96.95216876280057,33.50112342545763,
1770997161973.31,0.32608695652173914,-5.706521739130435,-0.5652173913043478,-2.0203470975463795,-9.117893476959903,-3.2052663076002395,4086.4468864468863,1897.4358974358972,1.0,7.930977268956363,126.08786610878661,-3.16030534351145,5.145038167938931,0.4580152671755725,-0.280359820089955,0.2338830584707646,-0.33883058470764615,2086.4468864468863,96.95788298505728,33.50112342545763,
1770997161992.845,0.30434782608695654,-5.630434782608695,-0.4782608695652174,-2.0777977259126272,-9.024536205864752,-3.03770197486535,4083.5164835164833,1905.4945054945053,1.0,7.936082500542431,126.00675458346736,-3.49618320610687,4.305343511450381,0.7786259541984732,-0.2788605697151424,0.2518740629685157,-0.33433283358320837,2272.5274725274726,96.95788298505728,33.50112342545763,
1770997162012.38,0.45652173913043476,-5.684782608695652,-0.4891304347826087,-1.9413524835427887,-9.084380610412927,-3.025733093955715,4084.981684981685,1903.296703296703,1.0,7.936082500542431,126.00675458346736,-3.465648854961832,4.67175572519084,0.916030534351145,-0.2773613193403298,0.24587706146926536,-0.34782608695652173,2339.194139194139,96.95216876280057,33.50112342545763,
1770997162031.9146,0.4782608695652174,-5.760869565217392,-0.45652173913043476,-1.87672052663076,-9.158587672052663,-3.03770197486535,4082.0512820512818,1901.098901098901,1.0,7.930977268956363,126.08786610878661,-2.6564885496183206,6.763358778625954,1.5877862595419847,-0.2653673163418291,0.25037481259370314,-0.33433283358320837,2290.842490842491,96.95788298505728,33.50112342545763,
1770997162051.4497,0.3804347826086956,-5.869565217391304,-0.6195652173913043,-1.9964093357271095,-9.254338719329743,-3.226810293237582,4083.5164835164833,1906.227106227106,1.0,7.930977268956363,126.08786610878661,-3.1755725190839694,6.2748091603053435,0.24427480916030533,-0.272863568215892,0.2518740629685157,-0.34332833583208394,2173.6263736263736,96.95788298505728,33.50112342545763,
1770997162070.9844,0.3695652173913043,-5.815217391304348,-0.5652173913043478,-1.9844404548174746,-9.242369838420107,-3.1262716935966486,4082.0512820512818,1901.8315018315018,1.0,7.930977268956363,126.08786610878661,-2.9923664122137406,7.297709923664121,-0.6870229007633587,-0.272863568215892,0.2638680659670165,-0.3493253373313343,2012.4542124542122,96.95502587252055,33.50112342545763,
1770997162090.5193,0.41304347826086957,-5.771739130434782,-0.4891304347826087,-1.9628964691801316,-9.199281867145421,-3.049670855774985,4057.142857142857,1868.8644688644688,1.0,7.930977268956363,126.08786610878661,-3.0229007633587783,5.236641221374046,-1.282442748091603,-0.27436281859070466,0.27436281859070466,-0.3493253373313343,1811.7216117216117,96.96074010041079,33.50112342545763,
1770997162110.0542,0.5217391304347826,-5.83695652173913,-0.5543478260869565,-1.859964093357271,-9.249551166965889,-3.1526032315978454,4057.142857142857,1858.6080586080584,1.0,7.930977268956363,126.08786610878661,-3.480916030534351,5.083969465648854,-0.32061068702290074,-0.26836581709145424,0.2593703148425787,-0.3493253373313343,1613.9194139194137,96.95788298505728,33.50112342545763,
1770997162129.589,0.40217391304347827,-5.75,-0.5434782608695652,-1.907839616995811,-9.239976062238181,-3.1358467983243568,4082.0512820512818,1888.6446886446886,1.0,7.930977268956363,126.08786610878661,-3.465648854961832,3.679389312977099,0.22900763358778625,-0.2638680659670165,0.24587706146926536,-0.34182908545727136,1470.3296703296703,96.95788298505728,33.50112342545763,
1770997162149.1238,0.43478260869565216,-5.695652173913043,-0.4782608695652174,-1.9772591262716936,-9.110712148414123,-3.066427289048474,4080.5860805860802,1895.970695970696,1.0,7.930977268956363,126.08786610878661,-3.1908396946564883,2.427480916030534,-0.8854961832061068,-0.26836581709145424,0.24287856071964017,-0.35082458770614694,1404.3956043956043,96.95502587252055,33.50112342545763,
1770997162168.6587,0.5,-5.641304347826087,-0.5217391304347826,-1.874326750448833,-9.058049072411729,-3.035308198683423,4055.6776556776554,1860.8058608058607,1.0,7.930977268956363,126.08786610878661,-2.9923664122137406,2.549618320610687,-0.38167938931297707,-0.27436281859070466,0.2518740629685157,-0.3448275862068965,1405.128205128205,96.95788298505728,33.50112342545763,
1770997162188.1936,0.41304347826086957,-5.6521739130434785,-0.5978260869565217,-1.8886894075403948,-9.036505086774387,-3.1310592459605027,4080.5860805860802,1888.6446886446886,1.0,7.930977268956363,126.08786610878661,-3.0534351145038165,3.5267175572519083,-0.7480916030534351,-0.27436281859070466,0.25487256371814093,-0.3403298350824588,1454.212454212454,96.95216876280057,33.50112342545763,
1770997162207.7285,0.2717391304347826,-5.663043478260869,-0.6739130434782609,-2.0466786355475763,-9.067624177139438,-3.222022740873728,4082.0512820512818,1897.4358974358972,1.0,7.930977268956363,126.08786610878661,-2.5343511450381677,2.946564885496183,-1.2061068702290076,-0.2653673163418291,0.26686656671664166,-0.34782608695652173,1512.8205128205127,96.95788298505728,33.50112342545763,
1770997162227.2634,0.2717391304347826,-5.6521739130434785,-0.6630434782608695,-2.14721723518851,-9.043686415320167,-3.265110712148414,4083.5164835164833,1906.227106227106,1.0,7.930977268956363,126.08786610878661,-2.8702290076335877,1.648854961832061,-1.618320610687023,-0.27136431784107945,0.2353823088455772,-0.34182908545727136,1558.2417582417581,96.95502587252055,33.50112342545763,
1770997162246.7983,0.3913043478260869,-5.673913043478261,-0.6195652173913043,-2.082585278276481,-9.055655296229803,-3.2315978456014363,4060.07326007326,1876.1904761904761,1.0,7.930977268956363,126.08786610878661,-3.8625954198473282,2.4122137404580153,-0.8396946564885496,-0.26686656671664166,0.24287856071964017,-0.335832083958021,1589.0109890109889,96.95502587252055,33.50112342545763,
1770997162266.3333,0.34782608695652173,-5.75,-0.6086956521739131,-2.025134649910233,-9.115499700777978,-3.222022740873728,4057.142857142857,1861.5384615384614,1.0,7.930977268956363,126.08786610878661,-4.870229007633587,4.595419847328244,0.6564885496183206,-0.272863568215892,0.2353823088455772,-0.3328335832083958,1595.6043956043954,96.95788298505728,33.50112342545763,
1770997162285.868,0.30434782608695654,-5.760869565217392,-0.5760869565217391,-2.068222621184919,-9.16816277678037,-3.1932974266906045,4083.5164835164833,1895.970695970696,1.0,7.930977268956363,126.08786610878661,-4.778625954198473,6.259541984732824,1.099236641221374,-0.2638680659670165,0.24437781109445278,-0.34332833583208394,1564.102564102564,96.95788298505728,33.50112342545763,
1770997162305.4028,0.40217391304347827,-5.771739130434782,-0.5869565217391304,-2.0227408737283064,-9.165769000598443,-3.1597845601436263,4082.0512820512818,1899.6336996336995,1.0,7.930977268956363,126.08786610878661,-4.931297709923664,5.984732824427481,0.9923664122137404,-0.26836581709145424,0.2518740629685157,-0.34332833583208394,1509.1575091575091,96.95502587252055,33.50112342545763,
1770997162324.9375,0.5,-5.771739130434782,-0.5217391304347826,-1.8982645122681028,-9.18491921005386,-3.116696588868941,4055.6776556776554,1868.131868131868,1.0,7.930977268956363,126.08786610878661,-4.519083969465648,6.549618320610687,1.3587786259541985,-0.27136431784107945,0.24887556221889054,-0.3448275862068965,1449.8168498168498,96.95216876280057,33.50112342545763,
1770997162344.473,0.4891304347826087,-5.782608695652174,-0.5543478260869565,-1.8791143028126869,-9.180131657690005,-3.092758827049671,4087.912087912088,1899.6336996336995,1.0,7.930977268956363,126.08786610878661,-4.702290076335878,6.6106870229007635,1.1755725190839694,-0.2818590704647676,0.2563718140929535,-0.32233883058470764,1411.7216117216117,96.95788298505728,33.50112342545763,
1770997162364.0076,0.5108695652173912,-5.782608695652174,-0.5543478260869565,-1.883901855176541,-9.192100538599641,-3.1502094554159186,4084.981684981685,1901.098901098901,1.0,7.930977268956363,126.08786610878661,-4.717557251908397,7.557251908396946,0.5954198473282443,-0.272863568215892,0.24137931034482757,-0.3313343328335832,1386.080586080586,96.95502587252055,33.50112342545763,
1770997162383.5425,0.5108695652173912,-5.739130434782608,-0.5217391304347826,-1.862357869539198,-9.16098144823459,-3.0903650508677436,4084.981684981685,1901.8315018315018,1.0,7.930977268956363,126.08786610878661,-4.458015267175572,6.1679389312977095,0.1984732824427481,-0.2773613193403298,0.2608695652173913,-0.34332833583208394,1350.9157509157508,96.95788298505728,33.50112342545763,
1770997162403.0771,0.5652173913043478,-5.739130434782608,-0.5108695652173912,-1.7953321364452424,-9.134649910233392,-3.0999401555954518,4061.5384615384614,1870.3296703296703,1.0,7.936082500542431,126.00675458346736,-4.381679389312977,5.587786259541985,-0.13740458015267176,-0.26836581709145424,0.2578710644677661,-0.33883058470764615,1312.087912087912,96.96074010041079,33.50112342545763,
1770997162949.9622,0.44565217391304346,-5.739130434782608,-0.6847826086956521,-1.9126271693596648,-9.125074805505685,-3.305804907241173,4077.655677655677,1899.6336996336995,1.0,7.941187732128498,125.92574734811959,-7.236641221374046,-7.221374045801526,-4.122137404580153,-0.27436281859070466,0.27136431784107945,-0.34332833583208394,1266.6666666666665,96.95058423800097,33.491073158034126,
1770997162969.5886,0.42391304347826086,-5.760869565217392,-0.5652173913043478,-1.9509275882704966,-9.158587672052663,-3.0712148414123277,4082.0512820512818,1900.3663003663003,1.0,7.941187732128498,125.92574734811959,-7.633587786259541,-8.412213740458014,-5.038167938931298,-0.27436281859070466,0.2578710644677661,-0.33883058470764615,1295.970695970696,96.95058423800097,33.491073158034126,
1770997162989.1235,0.5434782608695652,-5.739130434782608,-0.40217391304347827,-1.907839616995811,-9.151406343506881,-3.0281268701376423,4054.212454212454,1866.6666666666665,1.0,7.941187732128498,125.92574734811959,-8.48854961832061,-10.717557251908396,-5.465648854961832,-0.26686656671664166,0.26686656671664166,-0.3373313343328336,1334.7985347985348,96.95058423800097,33.491073158034126,
1770997163008.6584,0.6304347826086957,-5.695652173913043,-0.42391304347826086,-1.7690005984440453,-9.081986834231,-2.9491322561340514,4082.0512820512818,1891.5750915750914,1.0,7.941187732128498,125.92574734811959,-9.083969465648854,-10.13740458015267,-4.778625954198473,-0.26836581709145424,0.25337331334332835,-0.33433283358320837,1359.7069597069597,96.95058423800097,33.491073158034126,
1770997163028.193,0.4891304347826087,-5.739130434782608,-0.5217391304347826,-1.7785757031717535,-9.153800119688809,-3.056852184320766,4058.6080586080584,1866.6666666666665,1.0,7.941187732128498,125.92574734811959,-8.595419847328245,-9.84732824427481,-4.351145038167939,-0.272863568215892,0.24887556221889054,-0.34782608695652173,1375.8241758241757,96.95629836766098,33.491073158034126,
1770997163047.728,0.45652173913043476,-5.760869565217392,-0.4891304347826087,-1.8910831837223219,-9.158587672052663,-3.1119090365050868,4058.6080586080584,1859.3406593406592,1.0,7.941187732128498,125.92574734811959,-7.145038167938931,-11.267175572519083,-6.122137404580153,-0.272863568215892,0.2518740629685157,-0.34632683658170915,1388.278388278388,96.95344130142263,33.491073158034126,
1770997163067.263,0.5434782608695652,-5.75,-0.3695652173913043,-1.850388988629563,-9.12986235786954,-2.9778575703171755,4084.981684981685,1890.1098901098899,1.0,7.941187732128498,125.92574734811959,-6.519083969465648,-13.404580152671755,-7.526717557251908,-0.27136431784107945,0.239880059970015,-0.335832083958021,1372.8937728937728,96.95629836766098,33.491073158034126,
1770997163086.798,0.6304347826086957,-5.760869565217392,-0.43478260869565216,-1.7426690604428485,-9.139437462597247,-2.9802513464991023,4084.981684981685,1898.168498168498,1.0,7.941187732128498,125.92574734811959,-6.824427480916031,-14.076335877862595,-7.083969465648854,-0.27436281859070466,0.24887556221889054,-0.3313343328335832,1328.2051282051282,96.95629836766098,33.491073158034126,
1770997163106.3328,0.532608695652174,-5.793478260869565,-0.6304347826086957,-1.7618192698982644,-9.194494314781569,-3.1334530221424295,4086.4468864468863,1906.9597069597069,1.0,7.941187732128498,125.92574734811959,-6.625954198473282,-12.854961832061068,-6.33587786259542,-0.2818590704647676,0.23088455772113942,-0.3373313343328336,1279.8534798534797,96.95058423800097,33.491073158034126,
1770997163203.9155,0.43478260869565216,-5.6521739130434785,-0.8043478260869565,-1.9605026929982046,-9.058049072411729,-3.3991621783363253,4057.142857142857,1863.003663003663,1.0,7.941187732128498,125.92574734811959,-8.6412213740458,-13.96946564885496,-6.3206106870229,-0.2698650674662669,0.24887556221889054,-0.3448275862068965,1277.6556776556777,96.95915543671599,33.491073158034126,
1770997163223.542,0.532608695652174,-5.6521739130434785,-0.7717391304347826,-1.862357869539198,-9.038898862956314,-3.3991621783363253,4084.981684981685,1890.8424908424906,1.0,7.941187732128498,125.92574734811959,-8.50381679389313,-14.473282442748092,-6.5038167938931295,-0.2788605697151424,0.25487256371814093,-0.3448275862068965,1323.8095238095236,96.95629836766098,33.491073158034126,
1770997163243.077,0.5,-5.6521739130434785,-0.717391304347826,-1.850388988629563,-9.019748653500898,-3.3656493117893476,4083.5164835164833,1904.0293040293038,1.0,7.946292963714566,125.84484420173467,-8.458015267175572,-13.709923664122137,-6.030534351145038,-0.26686656671664166,0.26686656671664166,-0.35982008995502246,1364.102564102564,96.95344130142263,33.491073158034126,
1770997163321.1248,0.45652173913043476,-5.782608695652174,-0.5978260869565217,-1.9198084979054457,-9.18491921005386,-3.210053859964093,4084.981684981685,1884.9816849816848,1.0,7.946292963714566,125.84484420173467,-8.732824427480915,-12.946564885496183,-7.206106870229007,-0.272863568215892,0.25037481259370314,-0.35082458770614694,1286.4468864468863,96.95058423800097,33.491073158034126,
1770997163340.7512,0.45652173913043476,-5.75,-0.6304347826086957,-1.9126271693596648,-9.163375224416518,-3.226810293237582,4061.5384615384614,1865.201465201465,1.0,7.946292963714566,125.84484420173467,-7.98473282442748,-12.48854961832061,-6.580152671755725,-0.27436281859070466,0.2578710644677661,-0.3493253373313343,1251.2820512820513,96.95058423800097,33.491073158034126,
1770997163360.286,0.45652173913043476,-5.663043478260869,-0.5978260869565217,-1.907839616995811,-9.055655296229803,-3.202872531418312,4058.6080586080584,1858.6080586080584,1.0,7.941187732128498,125.92574734811959,-7.419847328244274,-11.740458015267174,-6.458015267175572,-0.2773613193403298,0.24887556221889054,-0.35532233883058467,1235.164835164835,96.95058423800097,33.491073158034126,
1770997163379.821,0.45652173913043476,-5.5978260869565215,-0.6195652173913043,-1.907839616995811,-8.991023339317774,-3.1932974266906045,4084.981684981685,1890.1098901098899,1.0,7.946292963714566,125.84484420173467,-7.480916030534351,-11.49618320610687,-6.366412213740458,-0.26836581709145424,0.26836581709145424,-0.35532233883058467,1227.106227106227,96.95058423800097,33.491073158034126,
1770997163399.3557,0.4891304347826087,-5.58695652173913,-0.6413043478260869,-1.9150209455415919,-8.991023339317774,-3.2052663076002395,4083.5164835164833,1903.296703296703,1.0,7.946292963714566,125.84484420173467,-6.977099236641221,-12.687022900763358,-5.297709923664122,-0.27586206896551724,0.2653673163418291,-0.3493253373313343,1227.8388278388277,96.95629836766098,33.491073158034126,
1770997163418.8906,0.5,-5.6521739130434785,-0.6521739130434783,-1.864751645721125,-9.010173548773189,-3.229204069419509,4058.6080586080584,1869.5970695970695,1.0,7.946292963714566,125.84484420173467,-7.374045801526718,-12.885496183206106,-5.129770992366412,-0.27586206896551724,0.2608695652173913,-0.3568215892053973,1227.8388278388277,96.94772717739599,33.491073158034126,
1770997163438.4255,0.4891304347826087,-5.608695652173913,-0.6630434782608695,-1.895870736086176,-9.01735487731897,-3.265110712148414,4086.4468864468863,1898.9010989010987,1.0,7.946292963714566,125.84484420173467,-6.549618320610687,-12.48854961832061,-5.374045801526718,-0.272863568215892,0.239880059970015,-0.3448275862068965,1242.4908424908424,96.95058423800097,33.491073158034126,
1770997163516.4734,0.18478260869565216,-5.75,-0.8369565217391304,-2.1137043686415318,-9.149012567324954,-3.4590065828845002,4086.4468864468863,1903.296703296703,1.0,7.946292963714566,125.84484420173467,-4.259541984732825,-8.961832061068701,-4.1679389312977095,-0.272863568215892,0.2653673163418291,-0.3568215892053973,1990.4761904761904,96.95058423800097,33.491073158034126,
1770997163536.1,0.41304347826086957,-5.739130434782608,-0.858695652173913,-2.0514661879114304,-9.12028725314183,-3.4398563734290843,4084.981684981685,1902.5641025641025,1.0,7.951398195300635,125.76404494382022,-3.66412213740458,-11.419847328244275,-5.770992366412213,-0.2818590704647676,0.2623688155922039,-0.35982008995502246,2175.091575091575,96.95058423800097,33.491073158034126,
1770997163555.6348,0.358695652173913,-5.706521739130435,-0.9347826086956521,-1.9676840215439857,-9.146618791143029,-3.497307001795332,4083.5164835164833,1907.6923076923076,1.0,7.951398195300635,125.76404494382022,-3.7862595419847325,-6.8396946564885495,-5.435114503816794,-0.2788605697151424,0.2698650674662669,-0.3703148425787106,2248.3516483516482,96.95344130142263,33.491073158034126,
1770997163575.1697,0.33695652173913043,-5.663043478260869,-0.9130434782608695,-2.094554159186116,-9.043686415320167,-3.557151406343507,4086.4468864468863,1909.8901098901097,1.0,7.951398195300635,125.76404494382022,-4.198473282442748,-5.175572519083969,-4.381679389312977,-0.2788605697151424,0.2698650674662669,-0.36881559220389803,2208.7912087912086,96.95344130142263,33.491073158034126,
1770997163594.7046,0.42391304347826086,-5.6521739130434785,-0.858695652173913,-1.9868342309994016,-9.077199281867145,-3.480550568521843,4086.4468864468863,1909.8901098901097,1.0,7.946292963714566,125.84484420173467,-4.854961832061068,-4.122137404580153,-3.7709923664122136,-0.2773613193403298,0.25487256371814093,-0.36431784107946025,2076.190476190476,96.95344130142263,33.491073158034126,
1770997163614.2395,0.46739130434782605,-5.663043478260869,-0.8478260869565217,-1.9245960502692998,-9.031717534410532,-3.4590065828845002,4058.6080586080584,1871.7948717948716,1.0,7.951398195300635,125.76404494382022,-5.114503816793893,-2.748091603053435,-3.2213740458015265,-0.2698650674662669,0.24737631184407796,-0.35982008995502246,1901.098901098901,96.95629836766098,33.491073158034126,
1770997163633.7744,0.3913043478260869,-5.641304347826087,-0.7826086956521738,-1.9772591262716936,-9.038898862956314,-3.418312387791741,4082.0512820512818,1892.3076923076922,1.0,7.951398195300635,125.76404494382022,-4.366412213740458,-1.4351145038167938,-3.099236641221374,-0.2788605697151424,0.24737631184407796,-0.3613193403298351,1724.5421245421244,96.95915543671599,33.491073158034126,
1770997163653.309,0.45652173913043476,-5.641304347826087,-0.75,-1.9628964691801316,-9.055655296229803,-3.3632555356074207,4058.6080586080584,1865.9340659340658,1.0,7.951398195300635,125.76404494382022,-4.381679389312977,-1.5419847328244274,-3.877862595419847,-0.2773613193403298,0.25337331334332835,-0.3613193403298351,1551.6483516483515,96.95058423800097,33.491073158034126,
1770997163672.844,0.5217391304347826,-5.684782608695652,-0.6956521739130435,-1.8384201077199283,-9.060442848593656,-3.3081986834231,4060.07326007326,1865.201465201465,1.0,7.951398195300635,125.76404494382022,-4.1679389312977095,-1.8473282442748091,-4.1679389312977095,-0.27436281859070466,0.2638680659670165,-0.3613193403298351,1402.197802197802,96.95629836766098,33.491073158034126,
1770997163692.379,0.45652173913043476,-5.706521739130435,-0.6630434782608695,-1.9198084979054457,-9.084380610412927,-3.257929383602633,4086.4468864468863,1897.4358974358972,1.0,7.951398195300635,125.76404494382022,-4.519083969465648,-0.7633587786259541,-3.297709923664122,-0.2773613193403298,0.26836581709145424,-0.36881559220389803,1296.7032967032967,96.95629836766098,33.491073158034126,
1770997163711.9138,0.46739130434782605,-5.706521739130435,-0.5978260869565217,-1.9150209455415919,-9.08916816277678,-3.229204069419509,4082.0512820512818,1899.6336996336995,1.0,7.951398195300635,125.76404494382022,-4.076335877862595,-1.3893129770992365,-3.49618320610687,-0.280359820089955,0.2638680659670165,-0.36731634182908546,1241.7582417582416,96.95058423800097,33.491073158034126,
1770997163731.4487,0.532608695652174,-5.706521739130435,-0.5869565217391304,-1.8479952124476362,-9.093955715140634,-3.178934769599042,4057.142857142857,1867.3992673992673,1.0,7.951398195300635,125.76404494382022,-4.076335877862595,-2.33587786259542,-3.2671755725190836,-0.2773613193403298,0.2563718140929535,-0.3658170914542728,1245.4212454212454,96.94772717739599,33.491073158034126,
1770997163750.9836,0.532608695652174,-5.706521739130435,-0.5978260869565217,-1.8360263315380012,-9.115499700777978,-3.1717534410532613,4086.4468864468863,1898.9010989010987,1.0,7.951398195300635,125.76404494382022,-4.015267175572519,-2.259541984732824,-2.9770992366412212,-0.2773613193403298,0.2518740629685157,-0.37181409295352325,1290.10989010989,96.94851941542444,33.496098291600354,
1770997163770.5183,0.5217391304347826,-5.695652173913043,-0.5869565217391304,-1.864751645721125,-9.115499700777978,-3.2004787552363854,4058.6080586080584,1868.131868131868,1.0,7.951398195300635,125.76404494382022,-4.366412213740458,-2.687022900763359,-2.8854961832061066,-0.27436281859070466,0.2593703148425787,-0.36431784107946025,1336.263736263736,96.95994776734105,33.496098291600354,
1770997163790.0532,0.5217391304347826,-5.695652173913043,-0.5978260869565217,-1.8384201077199283,-9.108318372232196,-3.202872531418312,4086.4468864468863,1898.9010989010987,1.0,7.951398195300635,125.76404494382022,-4.122137404580153,-3.3740458015267176,-3.099236641221374,-0.2788605697151424,0.2518740629685157,-0.3613193403298351,1376.5567765567764,96.9570906751368,33.496098291600354,
1770997163829.0315,0.6304347826086957,-5.728260869565217,-0.5652173913043478,-1.7666068222621185,-9.122681029323758,-3.1885098743267504,4087.912087912088,1901.098901098901,1.0,7.951398195300635,125.76404494382022,-4.106870229007633,-5.007633587786259,-3.145038167938931,-0.27586206896551724,0.2518740629685157,-0.35082458770614694,1374.3589743589744,96.95994776734105,33.496098291600354,
1770997163848.658,0.5869565217391304,-5.75,-0.6521739130434783,-1.7618192698982644,-9.132256134051467,-3.214841412327947,4082.0512820512818,1900.3663003663003,1.0,7.951398195300635,125.76404494382022,-3.877862595419847,-4.67175572519084,-2.8702290076335877,-0.2833583208395802,0.239880059970015,-0.35982008995502246,1330.4029304029302,96.9570906751368,33.496098291600354,
1770997163868.1929,0.5652173913043478,-5.728260869565217,-0.6630434782608695,-1.7761819269898265,-9.134649910233392,-3.274685816876122,4077.655677655677,1898.9010989010987,1.0,7.951398195300635,125.76404494382022,-3.969465648854962,-4.519083969465648,-3.145038167938931,-0.2818590704647676,0.26836581709145424,-0.3703148425787106,1287.9120879120878,96.9513764991785,33.496098291600354,
1770997163887.7278,0.5434782608695652,-5.739130434782608,-0.6956521739130435,-1.7881508078994615,-9.127468581687612,-3.301017354877319,4054.212454212454,1867.3992673992673,1.0,7.951398195300635,125.76404494382022,-3.32824427480916,-4.900763358778626,-3.450381679389313,-0.2818590704647676,0.2563718140929535,-0.35982008995502246,1235.164835164835,96.95423358574931,33.496098291600354,
1770997163907.2625,0.5217391304347826,-5.739130434782608,-0.717391304347826,-1.82884500299222,-9.149012567324954,-3.3034111310592458,4082.0512820512818,1891.5750915750914,1.0,7.951398195300635,125.76404494382022,-3.7404580152671754,-5.648854961832061,-4.045801526717557,-0.2773613193403298,0.23088455772113942,-0.3778110944527736,1189.7435897435896,96.9570906751368,33.496098291600354,
1770997163926.7974,0.5217391304347826,-5.739130434782608,-0.6630434782608695,-1.859964093357271,-9.165769000598443,-3.274685816876122,4054.212454212454,1864.4688644688642,1.0,7.951398195300635,125.76404494382022,-4.076335877862595,-5.908396946564885,-4.473282442748092,-0.28785607196401797,0.25487256371814093,-0.36881559220389803,1159.7069597069597,96.95994776734105,33.496098291600354,
1770997163946.3325,0.5,-5.75,-0.6956521739130435,-1.8551765409934171,-9.11310592459605,-3.2315978456014363,4080.5860805860802,1889.3772893772893,1.0,7.951398195300635,125.76404494382022,-4.259541984732825,-5.358778625954198,-4.9465648854961835,-0.2833583208395802,0.25337331334332835,-0.3703148425787106,1151.6483516483515,96.96280486236199,33.496098291600354,
1770997163965.8672,0.4891304347826087,-5.75,-0.6304347826086957,-1.8791143028126869,-9.153800119688809,-3.279473369239976,4057.142857142857,1865.201465201465,1.0,7.951398195300635,125.76404494382022,-4.137404580152672,-4.33587786259542,-4.641221374045801,-0.280359820089955,0.2563718140929535,-0.3613193403298351,1156.7765567765566,96.96280486236199,33.496098291600354,
1770997163985.402,0.5108695652173912,-5.695652173913043,-0.6304347826086957,-1.8192698982645121,-9.110712148414123,-3.245960502692998,4055.6776556776554,1852.0146520146518,1.0,7.951398195300635,125.76404494382022,-4.641221374045801,-4.6106870229007635,-5.526717557251908,-0.2833583208395802,0.2653673163418291,-0.3703148425787106,1169.9633699633698,96.9570906751368,33.496098291600354,
1770997164004.937,0.5108695652173912,-5.6521739130434785,-0.6521739130434783,-1.871932974266906,-9.084380610412927,-3.28426092160383,4082.0512820512818,1887.179487179487,1.0,7.951398195300635,125.76404494382022,-4.442748091603053,-5.190839694656488,-5.175572519083969,-0.2908545727136432,0.27436281859070466,-0.3748125937031484,1187.5457875457876,96.9570906751368,33.496098291600354,
1770997164024.4717,0.4891304347826087,-5.641304347826087,-0.6413043478260869,-1.9030520646319569,-9.06523040095751,-3.222022740873728,4077.655677655677,1894.5054945054944,1.0,7.951398195300635,125.76404494382022,-5.221374045801526,-4.381679389312977,-5.435114503816794,-0.280359820089955,0.2608695652173913,-0.3658170914542728,1183.8827838827838,96.96280486236199,33.496098291600354,
1770997164044.0066,0.4891304347826087,-5.608695652173913,-0.5978260869565217,-1.8551765409934171,-9.01735487731897,-3.202872531418312,4058.6080586080584,1867.3992673992673,1.0,7.951398195300635,125.76404494382022,-5.145038167938931,-4.290076335877862,-5.908396946564885,-0.2788605697151424,0.2608695652173913,-0.3703148425787106,1161.904761904762,96.96280486236199,33.496098291600354,
1770997164063.5415,0.45652173913043476,-5.619565217391304,-0.6086956521739131,-1.883901855176541,-9.010173548773189,-3.210053859964093,4084.981684981685,1892.3076923076922,1.0,7.951398195300635,125.76404494382022,-4.977099236641221,-4.6106870229007635,-4.65648854961832,-0.28785607196401797,0.25337331334332835,-0.3613193403298351,1118.6813186813185,96.95423358574931,33.496098291600354,
1770997164083.0764,0.45652173913043476,-5.663043478260869,-0.5978260869565217,-1.9126271693596648,-9.043686415320167,-3.1861160981448235,4058.6080586080584,1866.6666666666665,1.0,7.951398195300635,125.76404494382022,-5.038167938931298,-4.7328244274809155,-4.3206106870229,-0.280359820089955,0.25037481259370314,-0.37631184407796103,1082.7838827838827,96.95423358574931,33.496098291600354,
1770997164102.611,0.46739130434782605,-5.75,-0.6413043478260869,-1.8791143028126869,-9.103530819868341,-3.238779174147217,4084.981684981685,1891.5750915750914,1.0,7.951398195300635,125.76404494382022,-4.488549618320611,-4.412213740458015,-4.717557251908397,-0.2788605697151424,0.25487256371814093,-0.3733133433283358,1073.9926739926739,96.96280486236199,33.496098291600354,
1770997164122.1462,0.44565217391304346,-5.673913043478261,-0.6195652173913043,-1.9628964691801316,-9.098743267504489,-3.1885098743267504,4061.5384615384614,1867.3992673992673,1.0,7.951398195300635,125.76404494382022,-5.038167938931298,-4.015267175572519,-3.7557251908396947,-0.280359820089955,0.2653673163418291,-0.3733133433283358,1078.3882783882784,96.95994776734105,33.496098291600354,
1770997164141.6812,0.45652173913043476,-5.695652173913043,-0.6413043478260869,-1.9150209455415919,-9.093955715140634,-3.2315978456014363,4060.07326007326,1865.9340659340658,1.0,7.951398195300635,125.76404494382022,-4.427480916030534,-4.061068702290076,-4.015267175572519,-0.2863568215892054,0.2773613193403298,-0.36881559220389803,1079.8534798534797,96.95423358574931,33.496098291600354,
1770997164161.2158,0.5,-5.630434782608695,-0.6630434782608695,-1.859964093357271,-9.067624177139438,-3.2315978456014363,4086.4468864468863,1897.4358974358972,1.0,7.951398195300635,125.76404494382022,-3.7862595419847325,-2.1526717557251906,-2.748091603053435,-0.2788605697151424,0.26836581709145424,-0.3658170914542728,1079.120879120879,96.9570906751368,33.496098291600354,
1770997164180.7507,0.4891304347826087,-5.619565217391304,-0.7065217391304348,-1.893476959904249,-9.01735487731897,-3.320167564332735,4082.0512820512818,1899.6336996336995,1.0,7.951398195300635,125.76404494382022,-3.801526717557252,-0.0916030534351145,-1.8931297709923662,-0.2848575712143928,0.25037481259370314,-0.3568215892053973,1074.7252747252746,96.9513764991785,33.496098291600354,
1770997164200.2856,0.45652173913043476,-5.6521739130434785,-0.6847826086956521,-1.917414721723519,-9.04129263913824,-3.3273488928785158,4087.912087912088,1908.4249084249084,1.0,7.951398195300635,125.76404494382022,-3.9083969465648853,0.0916030534351145,-1.0687022900763359,-0.2818590704647676,0.24437781109445278,-0.35982008995502246,1073.9926739926739,96.96280486236199,33.496098291600354,
1770997164219.8206,0.5434782608695652,-5.663043478260869,-0.6847826086956521,-1.8336325553560742,-9.029323758228605,-3.312986235786954,4087.912087912088,1910.6227106227104,1.0,7.956503426886702,125.68334937439846,-4.091603053435114,-1.1603053435114503,-1.5114503816793892,-0.2833583208395802,0.2593703148425787,-0.37631184407796103,1082.051282051282,96.9513764991785,33.496098291600354,
1770997164239.3557,0.532608695652174,-5.673913043478261,-0.6847826086956521,-1.8384201077199283,-9.07241172950329,-3.289048473967684,4058.6080586080584,1871.7948717948716,1.0,7.951398195300635,125.76404494382022,-4.442748091603053,-1.83206106870229,-1.297709923664122,-0.2818590704647676,0.2593703148425787,-0.3778110944527736,1123.8095238095236,96.95423358574931,33.496098291600354,
1770997164258.8904,0.4782608695652174,-5.695652173913043,-0.6739130434782609,-1.864751645721125,-9.062836624775583,-3.289048473967684,4080.5860805860802,1891.5750915750914,1.0,7.951398195300635,125.76404494382022,-4.534351145038168,-2.2442748091603053,-1.4351145038167938,-0.27586206896551724,0.2593703148425787,-0.36431784107946025,1237.3626373626373,96.95994776734105,33.496098291600354,
1770997164278.425,0.5108695652173912,-5.706521739130435,-0.6630434782608695,-1.881508078994614,-9.07241172950329,-3.281867145421903,4058.6080586080584,1866.6666666666665,1.0,7.951398195300635,125.76404494382022,-4.259541984732825,-2.0,-1.2519083969465647,-0.280359820089955,0.2623688155922039,-0.37181409295352325,1423.4432234432234,96.9570906751368,33.496098291600354,
1770997164297.96,0.5,-5.706521739130435,-0.6304347826086957,-1.85278276481149,-9.115499700777978,-3.253141831238779,4057.142857142857,1858.6080586080584,1.0,7.956503426886702,125.68334937439846,-4.793893129770992,-0.732824427480916,-1.297709923664122,-0.280359820089955,0.272863568215892,-0.3733133433283358,1649.8168498168498,96.95994776734105,33.496098291600354,
1770997164317.4949,0.44565217391304346,-5.75,-0.6195652173913043,-1.917414721723519,-9.134649910233392,-3.210053859964093,4086.4468864468863,1903.296703296703,1.0,7.956503426886702,125.68334937439846,-4.641221374045801,0.6870229007633587,-0.7022900763358778,-0.2833583208395802,0.24737631184407796,-0.3583208395802099,1830.03663003663,96.95423358574931,33.496098291600354,
1770997164337.0298,0.4891304347826087,-5.75,-0.6521739130434783,-1.9102333931777378,-9.134649910233392,-3.245960502692998,4076.1904761904757,1893.7728937728937,1.0,7.951398195300635,125.76404494382022,-4.290076335877862,1.984732824427481,-0.4580152671755725,-0.2818590704647676,0.2698650674662669,-0.3733133433283358,1907.6923076923076,96.95423358574931,33.496098291600354,
1770997164356.5647,0.532608695652174,-5.75,-0.6521739130434783,-1.85278276481149,-9.146618791143029,-3.2675044883303412,4057.142857142857,1865.9340659340658,1.0,7.956503426886702,125.68334937439846,-4.33587786259542,2.6564885496183206,-0.5954198473282443,-0.2818590704647676,0.24287856071964017,-0.35532233883058467,1882.7838827838827,96.9513764991785,33.496098291600354,
1770997164376.0996,0.5869565217391304,-5.782608695652174,-0.6304347826086957,-1.8025134649910233,-9.194494314781569,-3.2315978456014363,4086.4468864468863,1898.168498168498,1.0,7.956503426886702,125.68334937439846,-3.9083969465648853,4.809160305343512,-0.8244274809160305,-0.2818590704647676,0.25337331334332835,-0.3778110944527736,1769.230769230769,96.9570906751368,33.496098291600354,
1770997164395.6345,0.5869565217391304,-5.75,-0.6521739130434783,-1.7713943746259724,-9.165769000598443,-3.253141831238779,4060.07326007326,1873.9926739926739,1.0,7.956503426886702,125.68334937439846,-4.045801526717557,5.251908396946565,-1.2213740458015268,-0.2788605697151424,0.2608695652173913,-0.3733133433283358,1610.2564102564102,96.96280486236199,33.496098291600354,
1770997164415.1692,0.6195652173913043,-5.771739130434782,-0.6086956521739131,-1.7546379413524835,-9.144225014961101,-3.222022740873728,4083.5164835164833,1898.9010989010987,1.0,7.956503426886702,125.68334937439846,-3.6946564885496183,4.687022900763359,-1.5419847328244274,-0.280359820089955,0.2608695652173913,-0.36881559220389803,1454.9450549450548,96.9570906751368,33.496098291600354,
1770997164434.704,0.6521739130434783,-5.760869565217392,-0.5869565217391304,-1.7139437462597247,-9.170556552962298,-3.1956912028725313,4061.5384615384614,1869.5970695970695,1.0,7.956503426886702,125.68334937439846,-3.2519083969465647,4.045801526717557,-1.465648854961832,-0.280359820089955,0.2578710644677661,-0.36431784107946025,1315.018315018315,96.9656619601997,33.496098291600354,
1770997164473.6824,0.6956521739130435,-5.771739130434782,-0.5978260869565217,-1.67803710353082,-9.165769000598443,-3.2004787552363854,4084.981684981685,1890.1098901098899,1.0,7.956503426886702,125.68334937439846,-2.748091603053435,4.564885496183206,-1.4198473282442747,-0.2788605697151424,0.2653673163418291,-0.3703148425787106,1142.1245421245421,96.9513764991785,33.496098291600354,
1770997164493.3088,0.6086956521739131,-5.760869565217392,-0.6413043478260869,-1.7354877318970676,-9.172950329144225,-3.2196289646918013,4077.655677655677,1895.970695970696,1.0,7.96160865847277,125.60275729400449,-2.8854961832061066,3.32824427480916,-1.5419847328244274,-0.2848575712143928,0.2578710644677661,-0.38080959520239877,1133.3333333333333,96.95994776734105,33.496098291600354,
1770997164512.8438,0.6304347826086957,-5.75,-0.5543478260869565,-1.7618192698982644,-9.149012567324954,-3.1861160981448235,4057.142857142857,1866.6666666666665,1.0,7.956503426886702,125.68334937439846,-2.8244274809160306,2.183206106870229,-2.015267175572519,-0.2818590704647676,0.2563718140929535,-0.3778110944527736,1176.5567765567764,96.95994776734105,33.496098291600354,
1770997164532.3784,0.6413043478260869,-5.717391304347826,-0.532608695652174,-1.7307001795332135,-9.13704368641532,-3.1526032315978454,4083.5164835164833,1897.4358974358972,1.0,7.956503426886702,125.68334937439846,-2.6717557251908395,1.7251908396946565,-1.648854961832061,-0.2863568215892054,0.25037481259370314,-0.3583208395802099,1253.4798534798533,96.96280486236199,33.496098291600354,
1770997164551.913,0.6086956521739131,-5.75,-0.5760869565217391,-1.7474566128067026,-9.12986235786954,-3.1717534410532613,4084.981684981685,1900.3663003663003,1.0,7.956503426886702,125.68334937439846,-3.0534351145038165,1.3435114503816794,-1.4351145038167938,-0.2818590704647676,0.2518740629685157,-0.36431784107946025,1333.3333333333333,96.95994776734105,33.496098291600354,
1770997164571.4482,0.5760869565217391,-5.717391304347826,-0.5760869565217391,-1.7737881508078994,-9.101137043686416,-3.1813285457809695,4082.0512820512818,1900.3663003663003,1.0,7.956503426886702,125.68334937439846,-3.114503816793893,1.297709923664122,-1.7862595419847327,-0.2848575712143928,0.24737631184407796,-0.36731634182908546,1382.4175824175823,96.9570906751368,33.496098291600354,
1770997164590.9832,0.532608695652174,-5.728260869565217,-0.5869565217391304,-1.8192698982645121,-9.12986235786954,-3.1717534410532613,4060.07326007326,1875.4578754578754,1.0,7.96160865847277,125.60275729400449,-3.16030534351145,0.9923664122137404,-2.015267175572519,-0.2833583208395802,0.2518740629685157,-0.35982008995502246,1392.6739926739926,96.9570906751368,33.496098291600354,
1770997164610.518,0.5434782608695652,-5.717391304347826,-0.5652173913043478,-1.8360263315380012,-9.12028725314183,-3.1813285457809695,4058.6080586080584,1862.2710622710622,1.0,7.956503426886702,125.68334937439846,-2.732824427480916,1.5725190839694656,-1.282442748091603,-0.28785607196401797,0.2698650674662669,-0.36731634182908546,1358.974358974359,96.95423358574931,33.496098291600354,
1770997164630.053,0.5217391304347826,-5.706521739130435,-0.6195652173913043,-1.8456014362657092,-9.117893476959903,-3.190903650508677,4082.0512820512818,1889.3772893772893,1.0,7.956503426886702,125.68334937439846,-2.6717557251908395,2.1374045801526718,-1.3282442748091603,-0.2788605697151424,0.26686656671664166,-0.36881559220389803,1298.168498168498,96.96280486236199,33.496098291600354,
1770997164649.5876,0.5217391304347826,-5.684782608695652,-0.6304347826086957,-1.85278276481149,-9.07241172950329,-3.2244165170556554,4074.7252747252746,1888.6446886446886,1.0,7.956503426886702,125.68334937439846,-2.5343511450381677,2.9923664122137406,-1.4045801526717556,-0.2773613193403298,0.2608695652173913,-0.37181409295352325,1227.106227106227,96.9570906751368,33.496098291600354,
1770997164669.1226,0.5217391304347826,-5.684782608695652,-0.6304347826086957,-1.859964093357271,-9.07241172950329,-3.210053859964093,4082.0512820512818,1896.7032967032965,1.0,7.956503426886702,125.68334937439846,-2.900763358778626,3.3435114503816794,-1.3893129770992365,-0.2848575712143928,0.25037481259370314,-0.38080959520239877,1167.7655677655678,96.9570906751368,33.496098291600354,
1770997164688.6577,0.5108695652173912,-5.695652173913043,-0.6086956521739131,-1.8456014362657092,-9.07241172950329,-3.2124476361460204,4082.0512820512818,1899.6336996336995,1.0,7.956503426886702,125.68334937439846,-2.8091603053435112,3.32824427480916,-1.3129770992366412,-0.2773613193403298,0.24887556221889054,-0.3733133433283358,1108.4249084249084,96.9570906751368,33.496098291600354,
1770997164708.1924,0.532608695652174,-5.739130434782608,-0.6304347826086957,-1.8192698982645121,-9.108318372232196,-3.2483542788749253,4060.07326007326,1874.7252747252746,1.0,7.956503426886702,125.68334937439846,-3.2519083969465647,3.312977099236641,-1.5419847328244274,-0.2893553223388306,0.2653673163418291,-0.3733133433283358,1041.7582417582416,96.95994776734105,33.496098291600354,
1770997164727.7273,0.5108695652173912,-5.75,-0.6195652173913043,-1.8432076600837821,-9.144225014961101,-3.210053859964093,4079.1208791208787,1885.7142857142856,1.0,7.956503426886702,125.68334937439846,-3.5114503816793894,3.2213740458015265,-1.0534351145038168,-0.2908545727136432,0.2578710644677661,-0.3658170914542728,992.6739926739926,96.9570906751368,33.496098291600354,
1770997164747.2622,0.5434782608695652,-5.739130434782608,-0.5869565217391304,-1.82884500299222,-9.158587672052663,-3.2052663076002395,4058.6080586080584,1865.201465201465,1.0,7.956503426886702,125.68334937439846,-3.5267175572519083,3.5877862595419847,-1.4045801526717556,-0.28785607196401797,0.2593703148425787,-0.3658170914542728,980.2197802197802,96.95788298505728,33.50112342545763,
1770997164766.7969,0.5652173913043478,-5.760869565217392,-0.5869565217391304,-1.8144823459006583,-9.165769000598443,-3.1885098743267504,4083.5164835164833,1896.7032967032965,1.0,7.96160865847277,125.60275729400449,-3.6030534351145036,2.8702290076335877,-1.2366412213740459,-0.27586206896551724,0.272863568215892,-0.37181409295352325,989.7435897435897,96.96074010041079,33.50112342545763,
1770997164786.3318,0.5760869565217391,-5.728260869565217,-0.5869565217391304,-1.7737881508078994,-9.144225014961101,-3.1765409934171154,4083.5164835164833,1906.227106227106,1.0,7.96160865847277,125.60275729400449,-3.4351145038167936,2.8854961832061066,-1.3740458015267174,-0.2893553223388306,0.24137931034482757,-0.3658170914542728,1008.058608058608,96.96359721858106,33.50112342545763,
1770997164805.8667,0.6086956521739131,-5.695652173913043,-0.5543478260869565,-1.7522441651705565,-9.093955715140634,-3.1526032315978454,4076.1904761904757,1893.7728937728937,1.0,7.956503426886702,125.68334937439846,-3.618320610687023,2.732824427480916,-1.3435114503816794,-0.2833583208395802,0.2638680659670165,-0.3658170914542728,1035.8974358974358,96.96074010041079,33.50112342545763,
1770997164825.4016,0.6413043478260869,-5.695652173913043,-0.5869565217391304,-1.7187312986235788,-9.098743267504489,-3.1454219030520645,4055.6776556776554,1860.8058608058607,1.0,7.956503426886702,125.68334937439846,-3.5877862595419847,2.8702290076335877,-1.0229007633587786,-0.2833583208395802,0.2608695652173913,-0.37631184407796103,1065.2014652014652,96.95216876280057,33.50112342545763,
1770997164844.9363,0.6195652173913043,-5.695652173913043,-0.5760869565217391,-1.7402752842609215,-9.086774386594854,-3.1478156792339917,4083.5164835164833,1895.2380952380952,1.0,7.96160865847277,125.60275729400449,-3.2213740458015265,2.748091603053435,-1.1908396946564885,-0.2788605697151424,0.25037481259370314,-0.36431784107946025,1088.6446886446886,96.95788298505728,33.50112342545763,
1770997164864.4714,0.5869565217391304,-5.728260869565217,-0.5978260869565217,-1.7713943746259724,-9.11310592459605,-3.1549970077797727,4064.468864468864,1875.4578754578754,1.0,7.956503426886702,125.68334937439846,-2.8091603053435112,2.0610687022900764,-1.816793893129771,-0.27136431784107945,0.2593703148425787,-0.36881559220389803,1101.098901098901,96.96074010041079,33.50112342545763,
1770997164884.0063,0.5869565217391304,-5.771739130434782,-0.5652173913043478,-1.7546379413524835,-9.16816277678037,-3.1502094554159186,4077.655677655677,1892.3076923076922,1.0,7.96160865847277,125.60275729400449,-2.9770992366412212,2.229007633587786,-1.6793893129770991,-0.28785607196401797,0.25037481259370314,-0.35982008995502246,1112.8205128205127,96.96074010041079,33.50112342545763,
1770997164903.541,0.5543478260869565,-5.771739130434782,-0.5652173913043478,-1.7977259126271694,-9.199281867145421,-3.1669658886894076,4058.6080586080584,1866.6666666666665,1.0,7.96160865847277,125.60275729400449,-2.8702290076335877,2.8396946564885495,-1.6030534351145038,-0.2773613193403298,0.27136431784107945,-0.35532233883058467,1112.087912087912,96.95788298505728,33.50112342545763,
1770997164923.076,0.5760869565217391,-5.75,-0.5978260869565217,-1.8073010173548774,-9.16816277678037,-3.1765409934171154,4083.5164835164833,1897.4358974358972,1.0,7.96160865847277,125.60275729400449,-2.595419847328244,3.6488549618320607,-1.5419847328244274,-0.280359820089955,0.2518740629685157,-0.3568215892053973,1102.5641025641025,96.95216876280057,33.50112342545763,
1770997164942.6108,0.6086956521739131,-5.728260869565217,-0.5760869565217391,-1.7690005984440453,-9.141831238779174,-3.1741472172351886,4083.5164835164833,1906.227106227106,1.0,7.96160865847277,125.60275729400449,-2.8702290076335877,3.66412213740458,-0.7480916030534351,-0.280359820089955,0.24287856071964017,-0.3613193403298351,1096.7032967032967,96.95502587252055,33.50112342545763,
1770997164962.1458,0.6304347826086957,-5.706521739130435,-0.5760869565217391,-1.7211250748055056,-9.110712148414123,-3.1837223219628963,4076.1904761904757,1894.5054945054944,1.0,7.96160865847277,125.60275729400449,-2.778625954198473,3.236641221374046,-0.9618320610687022,-0.2848575712143928,0.2623688155922039,-0.36431784107946025,1093.040293040293,96.95502587252055,33.50112342545763,
1770997164981.681,0.6195652173913043,-5.695652173913043,-0.5760869565217391,-1.7115499700777976,-9.096349491322561,-3.1765409934171154,4055.6776556776554,1860.07326007326,1.0,7.96160865847277,125.60275729400449,-2.778625954198473,2.5038167938931295,-0.8244274809160305,-0.2833583208395802,0.2563718140929535,-0.36281859070464767,1084.981684981685,96.95788298505728,33.50112342545763,
1770997165001.2156,0.6304347826086957,-5.673913043478261,-0.5652173913043478,-1.7115499700777976,-9.067624177139438,-3.1885098743267504,4083.5164835164833,1895.2380952380952,1.0,7.96160865847277,125.60275729400449,-3.480916030534351,1.4961832061068703,-1.6335877862595418,-0.2833583208395802,0.2608695652173913,-0.3703148425787106,1095.2380952380952,96.95788298505728,33.50112342545763,
1770997165020.7502,0.5978260869565217,-5.695652173913043,-0.532608695652174,-1.7498503889886294,-9.079593058049072,-3.1621783363255536,4070.32967032967,1883.5164835164833,1.0,7.956503426886702,125.68334937439846,-3.0534351145038165,0.04580152671755725,-2.16793893129771,-0.2788605697151424,0.24887556221889054,-0.36731634182908546,1150.9157509157508,96.95502587252055,33.50112342545763,
1770997165040.2852,0.5869565217391304,-5.706521739130435,-0.5434782608695652,-1.7785757031717535,-9.115499700777978,-3.1358467983243568,4076.1904761904757,1888.6446886446886,1.0,7.956503426886702,125.68334937439846,-3.3587786259541983,-0.549618320610687,-2.0763358778625953,-0.2818590704647676,0.2638680659670165,-0.36431784107946025,1277.6556776556777,96.95502587252055,33.50112342545763,
1770997165059.82,0.5652173913043478,-5.771739130434782,-0.5652173913043478,-1.7977259126271694,-9.16816277678037,-3.1813285457809695,4058.6080586080584,1865.9340659340658,1.0,7.96160865847277,125.60275729400449,-2.854961832061069,0.3511450381679389,-1.8015267175572518,-0.27436281859070466,0.27136431784107945,-0.36431784107946025,1465.9340659340658,96.95788298505728,33.50112342545763,
1770997165079.355,0.4891304347826087,-5.760869565217392,-0.5652173913043478,-1.859964093357271,-9.17773788150808,-3.1717534410532613,4083.5164835164833,1896.7032967032965,1.0,7.956503426886702,125.68334937439846,-2.8091603053435112,1.5267175572519083,-1.450381679389313,-0.2848575712143928,0.24287856071964017,-0.3583208395802099,1679.120879120879,96.95788298505728,33.50112342545763,
1770997165098.89,0.42391304347826086,-5.771739130434782,-0.5434782608695652,-1.9389587073608616,-9.182525433871932,-3.1334530221424295,4082.0512820512818,1900.3663003663003,1.0,7.956503426886702,125.68334937439846,-2.778625954198473,2.198473282442748,-0.9465648854961831,-0.2773613193403298,0.2578710644677661,-0.36881559220389803,1840.2930402930401,96.94931165589739,33.50112342545763,
1770997165118.4248,0.4782608695652174,-5.771739130434782,-0.5543478260869565,-1.9389587073608616,-9.189706762417714,-3.1478156792339917,4073.260073260073,1885.7142857142856,1.0,7.96160865847277,125.60275729400449,-3.2671755725190836,2.9770992366412212,-1.3282442748091603,-0.2788605697151424,0.2593703148425787,-0.3703148425787106,1917.9487179487178,96.95216876280057,33.50112342545763,
1770997165137.9597,0.532608695652174,-5.728260869565217,-0.5760869565217391,-1.8575703171753442,-9.141831238779174,-3.128665469778576,4054.212454212454,1863.003663003663,1.0,7.96160865847277,125.60275729400449,-3.6030534351145036,4.061068702290076,-0.6106870229007634,-0.2818590704647676,0.25337331334332835,-0.3733133433283358,1900.3663003663003,96.95788298505728,33.50112342545763,
1770997165157.4944,0.5543478260869565,-5.706521739130435,-0.5869565217391304,-1.8001196888090962,-9.132256134051467,-3.1454219030520645,4082.0512820512818,1890.1098901098899,1.0,7.96160865847277,125.60275729400449,-3.129770992366412,5.786259541984733,-0.015267175572519083,-0.2818590704647676,0.25487256371814093,-0.36431784107946025,1805.128205128205,96.95788298505728,33.50112342545763,
1770997165177.0293,0.5869565217391304,-5.673913043478261,-0.6304347826086957,-1.7737881508078994,-9.050867743865949,-3.2052663076002395,4071.7948717948716,1887.9120879120878,1.0,7.956503426886702,125.68334937439846,-2.16793893129771,7.511450381679389,0.1984732824427481,-0.2833583208395802,0.2563718140929535,-0.36281859070464767,1660.8058608058607,96.96074010041079,33.50112342545763,
1770997165196.5642,0.5543478260869565,-5.684782608695652,-0.6304347826086957,-1.8025134649910233,-9.060442848593656,-3.2172351885098744,4076.1904761904757,1889.3772893772893,1.0,7.96160865847277,125.60275729400449,-1.7862595419847327,8.6412213740458,0.24427480916030533,-0.2788605697151424,0.2578710644677661,-0.37181409295352325,1506.227106227106,96.96074010041079,33.50112342545763,
1770997165216.099,0.5869565217391304,-5.728260869565217,-0.6521739130434783,-1.7785757031717535,-9.108318372232196,-3.222022740873728,4057.142857142857,1865.201465201465,1.0,7.956503426886702,125.68334937439846,-1.7709923664122136,9.297709923664122,0.030534351145038167,-0.28785607196401797,0.2593703148425787,-0.3658170914542728,1368.4981684981683,96.95788298505728,33.50112342545763,
1770997165235.634,0.6086956521739131,-5.771739130434782,-0.7065217391304348,-1.7522441651705565,-9.17773788150808,-3.26032315978456,4055.6776556776554,1852.0146520146518,1.0,7.956503426886702,125.68334937439846,-2.015267175572519,9.49618320610687,0.24427480916030533,-0.2863568215892054,0.26686656671664166,-0.36731634182908546,1265.2014652014652,96.95216876280057,33.50112342545763,
1770997165255.169,0.5,-5.815217391304348,-0.717391304347826,-1.8168761220825853,-9.235188509874327,-3.3512866546977857,4082.0512820512818,1886.4468864468863,1.0,7.956503426886702,125.68334937439846,-2.198473282442748,10.061068702290076,0.6259541984732824,-0.2773613193403298,0.26836581709145424,-0.36431784107946025,1211.7216117216117,96.95788298505728,33.50112342545763,
1770997165274.7036,0.532608695652174,-5.793478260869565,-0.6630434782608695,-1.8551765409934171,-9.213644524236983,-3.28426092160383,4074.7252747252746,1887.9120879120878,1.0,7.956503426886702,125.68334937439846,-2.6259541984732824,9.114503816793892,0.42748091603053434,-0.280359820089955,0.2653673163418291,-0.3583208395802099,1212.4542124542124,96.95502587252055,33.50112342545763,
1770997165294.2383,0.6521739130434783,-5.771739130434782,-0.5869565217391304,-1.7259126271693597,-9.182525433871932,-3.1741472172351886,4055.6776556776554,1858.6080586080584,1.0,7.956503426886702,125.68334937439846,-2.931297709923664,9.877862595419847,1.618320610687023,-0.280359820089955,0.24437781109445278,-0.3583208395802099,1268.131868131868,96.9664543395681,33.50112342545763,
1770997165313.7734,0.6739130434782609,-5.782608695652174,-0.5869565217391304,-1.6852184320766008,-9.199281867145421,-3.1478156792339917,4084.981684981685,1883.5164835164833,1.0,7.956503426886702,125.68334937439846,-2.5801526717557253,11.603053435114504,2.916030534351145,-0.2863568215892054,0.2608695652173913,-0.34782608695652173,1358.974358974359,96.96359721858106,33.50112342545763,
1770997165333.3083,0.6304347826086957,-5.815217391304348,-0.5869565217391304,-1.7115499700777976,-9.172950329144225,-3.1813285457809695,4082.0512820512818,1895.970695970696,1.0,7.956503426886702,125.68334937439846,-2.427480916030534,12.82442748091603,3.2671755725190836,-0.27586206896551724,0.24437781109445278,-0.3658170914542728,1448.3516483516482,96.96074010041079,33.50112342545763,
1770997165352.8433,0.6304347826086957,-5.793478260869565,-0.5543478260869565,-1.7019748653500897,-9.182525433871932,-3.1765409934171154,4077.655677655677,1897.4358974358972,1.0,7.956503426886702,125.68334937439846,-2.198473282442748,13.206106870229007,2.381679389312977,-0.2773613193403298,0.2593703148425787,-0.36431784107946025,1511.3553113553112,96.96074010041079,33.50112342545763,
1770997165372.3782,0.6304347826086957,-5.771739130434782,-0.5434782608695652,-1.7307001795332135,-9.17773788150808,-3.104727707959306,4057.142857142857,1867.3992673992673,1.0,7.951398195300635,125.76404494382022,-2.1221374045801524,12.290076335877862,1.450381679389313,-0.2818590704647676,0.26836581709145424,-0.35082458770614694,1522.3443223443223,96.95788298505728,33.50112342545763,
1770997165391.9128,0.6739130434782609,-5.815217391304348,-0.5,-1.6852184320766008,-9.187312986235787,-3.076002393776182,4055.6776556776554,1852.0146520146518,1.0,7.956503426886702,125.68334937439846,-2.198473282442748,11.572519083969466,1.0229007633587786,-0.2773613193403298,0.2698650674662669,-0.36731634182908546,1486.4468864468863,96.95788298505728,33.50112342545763,
1770997165411.4478,0.6304347826086957,-5.804347826086956,-0.5,-1.6876122082585279,-9.218432076600838,-3.087971274685817,4082.0512820512818,1887.179487179487,1.0,7.956503426886702,125.68334937439846,-2.030534351145038,12.122137404580153,1.618320610687023,-0.27586206896551724,0.2593703148425787,-0.35532233883058467,1413.9194139194137,96.95788298505728,33.50112342545763,
1770997165430.983,0.6630434782608695,-5.771739130434782,-0.5,-1.6900059844404547,-9.196888090963494,-3.104727707959306,4074.7252747252746,1887.179487179487,1.0,7.956503426886702,125.68334937439846,-1.4045801526717556,12.0,1.0076335877862594,-0.2833583208395802,0.27136431784107945,-0.36281859070464767,1328.937728937729,96.95788298505728,33.50112342545763,
1770997165450.5176,0.6521739130434783,-5.793478260869565,-0.5434782608695652,-1.6876122082585279,-9.187312986235787,-3.1262716935966486,4054.212454212454,1863.7362637362637,1.0,7.956503426886702,125.68334937439846,-1.1908396946564885,12.82442748091603,1.4961832061068703,-0.27436281859070466,0.25337331334332835,-0.35982008995502246,1257.142857142857,96.95788298505728,33.50112342545763,
1770997165470.0525,0.6413043478260869,-5.793478260869565,-0.5434782608695652,-1.7283064033512867,-9.20885697187313,-3.1454219030520645,4083.5164835164833,1896.7032967032965,1.0,7.956503426886702,125.68334937439846,-0.5190839694656488,12.977099236641221,1.5419847328244274,-0.2788605697151424,0.25487256371814093,-0.3613193403298351,1203.6630036630036,96.95216876280057,33.50112342545763,
1770997165489.5874,0.6086956521739131,-5.815217391304348,-0.5434782608695652,-1.7450628366247756,-9.213644524236983,-3.104727707959306,4076.1904761904757,1891.5750915750914,1.0,7.956503426886702,125.68334937439846,-1.0687022900763359,12.320610687022901,1.1755725190839694,-0.2833583208395802,0.24737631184407796,-0.35082458770614694,1157.5091575091574,96.95502587252055,33.50112342545763,
1770997165509.1223,0.6739130434782609,-5.793478260869565,-0.532608695652174,-1.658886894075404,-9.204069419509276,-3.116696588868941,4074.7252747252746,1890.1098901098899,1.0,7.956503426886702,125.68334937439846,-1.4961832061068703,11.862595419847327,0.9770992366412213,-0.28785607196401797,0.2578710644677661,-0.3568215892053973,1128.2051282051282,96.95788298505728,33.50112342545763,
1770997165528.657,0.7065217391304348,-5.782608695652174,-0.5,-1.65409934171155,-9.22561340514662,-3.0951526032315977,4057.142857142857,1865.201465201465,1.0,7.956503426886702,125.68334937439846,-1.3893129770992365,11.618320610687022,0.8396946564885496,-0.2818590704647676,0.2698650674662669,-0.35082458770614694,1110.6227106227107,96.95788298505728,33.50112342545763,
1770997165548.192,0.7065217391304348,-5.793478260869565,-0.5108695652173912,-1.67803710353082,-9.201675643327349,-3.087971274685817,4054.212454212454,1857.142857142857,1.0,7.956503426886702,125.68334937439846,-1.3587786259541985,10.946564885496183,0.9618320610687022,-0.27436281859070466,0.27136431784107945,-0.35082458770614694,1113.5531135531135,96.95788298505728,33.50112342545763,
1770997165567.7268,0.717391304347826,-5.771739130434782,-0.4782608695652174,-1.632555356074207,-9.170556552962298,-3.078396169958109,4082.0512820512818,1887.9120879120878,1.0,7.956503426886702,125.68334937439846,-1.5267175572519083,10.381679389312977,0.6259541984732824,-0.2818590704647676,0.26686656671664166,-0.3523238380809595,1123.8095238095236,96.96074010041079,33.50112342545763,
1770997165587.2617,0.7391304347826086,-5.771739130434782,-0.46739130434782605,-1.6277678037103531,-9.172950329144225,-3.044883303411131,4073.260073260073,1882.051282051282,1.0,7.956503426886702,125.68334937439846,-1.3129770992366412,9.526717557251908,0.22900763358778625,-0.280359820089955,0.26686656671664166,-0.34782608695652173,1139.194139194139,96.95216876280057,33.50112342545763,
1770997165606.7966,0.7282608695652174,-5.75,-0.43478260869565216,-1.646918013165769,-9.17773788150808,-3.066427289048474,4054.212454212454,1862.2710622710622,1.0,7.956503426886702,125.68334937439846,-2.015267175572519,8.442748091603054,-0.07633587786259542,-0.27586206896551724,0.2578710644677661,-0.3493253373313343,1156.0439560439559,96.96074010041079,33.50112342545763,
1770997165626.3315,0.75,-5.804347826086956,-0.4782608695652174,-1.589467384799521,-9.194494314781569,-3.023339317773788,4083.5164835164833,1895.970695970696,1.0,7.956503426886702,125.68334937439846,-2.183206106870229,8.366412213740457,-0.1984732824427481,-0.272863568215892,0.2623688155922039,-0.3493253373313343,1178.021978021978,96.95502587252055,33.50112342545763,
1770997165645.8662,0.6521739130434783,-5.83695652173913,-0.46739130434782605,-1.634949132256134,-9.235188509874327,-3.044883303411131,4082.0512820512818,1899.6336996336995,1.0,7.956503426886702,125.68334937439846,-2.4885496183206106,7.923664122137405,0.5190839694656488,-0.27436281859070466,0.25037481259370314,-0.3373313343328336,1186.080586080586,96.95788298505728,33.50112342545763,
1770997165665.4011,0.6413043478260869,-5.8478260869565215,-0.44565217391304346,-1.6947935368043088,-9.244763614602034,-3.03770197486535,4076.1904761904757,1891.5750915750914,1.0,7.956503426886702,125.68334937439846,-2.610687022900763,7.038167938931298,0.0,-0.2773613193403298,0.2593703148425787,-0.3373313343328336,1184.6153846153845,96.95788298505728,33.50112342545763,
1770997165684.936,0.7065217391304348,-5.8478260869565215,-0.43478260869565216,-1.656493117893477,-9.247157390783961,-2.9611011370436864,4057.142857142857,1865.9340659340658,1.0,7.956503426886702,125.68334937439846,-2.916030534351145,6.122137404580153,-0.7175572519083969,-0.2818590704647676,0.2578710644677661,-0.34782608695652173,1179.4871794871794,96.95788298505728,33.50112342545763,
1770997165704.471,0.8152173913043478,-5.782608695652174,-0.34782608695652173,-1.589467384799521,-9.228007181328545,-2.9922202274087373,4054.212454212454,1857.142857142857,1.0,7.956503426886702,125.68334937439846,-3.541984732824427,5.007633587786259,0.15267175572519084,-0.280359820089955,0.26836581709145424,-0.3568215892053973,1173.6263736263736,96.95216876280057,33.50112342545763,
1770997165724.006,0.6521739130434783,-5.793478260869565,-0.40217391304347827,-1.656493117893477,-9.192100538599641,-2.951526032315978,4082.0512820512818,1887.9120879120878,1.0,7.956503426886702,125.68334937439846,-4.580152671755725,4.7328244274809155,0.47328244274809156,-0.2848575712143928,0.239880059970015,-0.33433283358320837,1168.4981684981685,96.95788298505728,33.50112342545763,
1770997165743.5408,0.7391304347826086,-5.760869565217392,-0.358695652173913,-1.6517055655296229,-9.182525433871932,-2.9443447037701973,4073.260073260073,1882.051282051282,1.0,7.956503426886702,125.68334937439846,-4.015267175572519,1.0534351145038168,0.0,-0.280359820089955,0.272863568215892,-0.3568215892053973,1180.952380952381,96.95867529742216,33.50614855960593,
1770997165763.0754,0.8043478260869565,-5.815217391304348,-0.3804347826086956,-1.5056852184320766,-9.206463195691203,-2.963494913225613,4052.7472527472523,1855.6776556776556,1.0,7.96160865847277,125.60275729400449,-4.412213740458015,-0.04580152671755725,-0.6717557251908397,-0.2698650674662669,0.2593703148425787,-0.3493253373313343,1235.8974358974358,96.96153243592498,33.50614855960593,
1770997165782.6104,0.717391304347826,-5.815217391304348,-0.43478260869565216,-1.5942549371633752,-9.249551166965889,-2.982645122681029,4080.5860805860802,1887.9120879120878,1.0,7.956503426886702,125.68334937439846,-4.0,-0.10687022900763359,-1.1908396946564885,-0.2698650674662669,0.2578710644677661,-0.34632683658170915,1341.3919413919414,96.96153243592498,33.50614855960593,
1770997165802.1453,0.717391304347826,-5.83695652173913,-0.45652173913043476,-1.63016157989228,-9.25673249551167,-3.0281268701376423,4076.1904761904757,1889.3772893772893,1.0,7.956503426886702,125.68334937439846,-3.9236641221374042,0.8396946564885496,-2.6412213740458013,-0.2773613193403298,0.24887556221889054,-0.34182908545727136,1505.4945054945053,96.95867529742216,33.50614855960593,
1770997165821.6802,0.7391304347826086,-5.804347826086956,-0.45652173913043476,-1.5966487133453022,-9.213644524236983,-3.03770197486535,4073.260073260073,1882.7838827838827,1.0,7.956503426886702,125.68334937439846,-3.6488549618320607,0.6412213740458015,-3.0381679389312977,-0.2773613193403298,0.25487256371814093,-0.3523238380809595,1709.8901098901097,96.96153243592498,33.50614855960593,
1770997165841.215,0.6739130434782609,-5.83695652173913,-0.4782608695652174,-1.65409934171155,-9.237582286056254,-3.052064631956912,4065.9340659340655,1879.120879120879,1.0,7.956503426886702,125.68334937439846,-4.076335877862595,-0.015267175572519083,-2.16793893129771,-0.27586206896551724,0.2653673163418291,-0.335832083958021,1893.040293040293,96.95867529742216,33.50614855960593,
1770997165860.75,0.6739130434782609,-5.858695652173913,-0.5,-1.6828246558946738,-9.273488928785158,-3.066427289048474,4082.0512820512818,1893.7728937728937,1.0,7.956503426886702,125.68334937439846,-4.030534351145038,-0.8702290076335878,-1.8015267175572518,-0.280359820089955,0.24587706146926536,-0.335832083958021,1997.069597069597,96.9643895772446,33.50614855960593,
1770997165880.285,0.6956521739130435,-5.858695652173913,-0.5434782608695652,-1.65409934171155,-9.261520047875523,-3.1358467983243568,4082.0512820512818,1898.9010989010987,1.0,7.956503426886702,125.68334937439846,-4.396946564885496,-1.099236641221374,-2.1068702290076335,-0.2818590704647676,0.27136431784107945,-0.34182908545727136,1994.139194139194,96.95867529742216,33.50614855960593,
1770997165899.8196,0.6521739130434783,-5.804347826086956,-0.532608695652174,-1.6995810891681626,-9.22561340514662,-3.1214841412327945,4071.7948717948716,1891.5750915750914,1.0,7.956503426886702,125.68334937439846,-5.1603053435114505,-1.3129770992366412,-1.9389312977099236,-0.27586206896551724,0.2638680659670165,-0.3448275862068965,1901.098901098901,96.95867529742216,33.50614855960593,
