Shimmer_A679_TimestampSync_Unix_CAL,Shimmer_A679_Accel_LN_X_CAL,Shimmer_A679_Accel_LN_Y_CAL,Shimmer_A679_Accel_LN_Z_CAL,Shimmer_A679_Accel_WR_X_CAL,Shimmer_A679_Accel_WR_Y_CAL,Shimmer_A679_Accel_WR_Z_CAL,Shimmer_A679_Battery_CAL,Shimmer_A679_Ext_Exp_A15_CAL,Shimmer_A679_GSR_Range_CAL,Shimmer_A679_GSR_Skin_Conductance_CAL,Shimmer_A679_GSR_Skin_Resistance_CAL,Shimmer_A679_Gyro_X_CAL,Shimmer_A679_Gyro_Y_CAL,Shimmer_A679_Gyro_Z_CAL,Shimmer_A679_Mag_X_CAL,Shimmer_A679_Mag_Y_CAL,Shimmer_A679_Mag_Z_CAL,Shimmer_A679_PPG_A13_CAL,Shimmer_A679_Pressure_BMP280_CAL,Shimmer_A679_Temperature_BMP280_CAL,Unnamed: 21
1770995740010.308,1.1195652173913042,-5.83695652173913,-0.6630434782608695,-1.196888090963495,-9.230400957510472,-3.269898264512268,4114.285714285714,1959.7069597069597,1.0,6.15435667700476,162.4865201161344,-3.480916030534351,8.931297709923664,1.6335877862595418,-0.2818590704647676,0.25487256371814093,-0.34782608695652173,1346.5201465201465,96.9560655340864,32.92826004030648,
1770995740029.8428,1.1521739130434783,-5.739130434782608,-0.717391304347826,-1.16098144823459,-9.17773788150808,-3.296229802513465,4114.285714285714,1958.974358974359,1.0,6.15435667700476,162.4865201161344,-3.282442748091603,9.48091603053435,2.1374045801526718,-0.2833583208395802,0.24587706146926536,-0.36281859070464767,1372.8937728937728,96.95035641494638,32.92826004030648,
1770995740049.3777,1.1956521739130435,-5.673913043478261,-0.6847826086956521,-1.1370436864153202,-9.084380610412927,-3.293836026331538,4112.820512820513,1964.102564102564,1.0,6.159461908590828,162.35184417737258,-4.106870229007633,8.717557251908397,2.732824427480916,-0.27586206896551724,0.26836581709145424,-0.3658170914542728,1391.9413919413919,96.95321097311052,32.92826004030648,
1770995740068.9124,1.2717391304347825,-5.695652173913043,-0.6304347826086957,-1.0532615200478754,-9.06523040095751,-3.241172950329144,4112.820512820513,1965.5677655677655,1.0,6.159461908590828,162.35184417737258,-4.351145038167939,8.320610687022901,2.3206106870229006,-0.2773613193403298,0.24737631184407796,-0.3493253373313343,1391.2087912087911,96.95321097311052,32.92826004030648,
1770995740088.4473,1.2608695652173914,-5.75,-0.6304347826086957,-1.0221424296828245,-9.101137043686416,-3.238779174147217,4089.377289377289,1934.065934065934,1.0,6.15435667700476,162.4865201161344,-4.229007633587786,7.938931297709924,2.4732824427480917,-0.2773613193403298,0.2338830584707646,-0.36281859070464767,1382.4175824175823,96.95321097311052,32.92826004030648,
1770995740107.9822,1.1739130434782608,-5.869565217391304,-0.6521739130434783,-1.0724117295032913,-9.244763614602034,-3.245960502692998,4086.4468864468863,1917.9487179487178,1.0,6.15435667700476,162.4865201161344,-4.106870229007633,7.2824427480916025,1.6946564885496183,-0.2698650674662669,0.239880059970015,-0.3613193403298351,1390.4761904761904,96.95321097311052,32.92826004030648,
1770995740127.517,1.1630434782608696,-5.934782608695652,-0.6413043478260869,-1.1346499102333931,-9.321364452423698,-3.26032315978456,4114.285714285714,1947.2527472527472,1.0,6.15435667700476,162.4865201161344,-4.2748091603053435,6.580152671755725,1.0229007633587786,-0.272863568215892,0.2518740629685157,-0.3613193403298351,1438.8278388278388,96.9560655340864,32.92826004030648,
1770995740147.052,1.1739130434782608,-5.923913043478261,-0.6195652173913043,-1.1131059245960502,-9.338120885697187,-3.262716935966487,4112.820512820513,1959.7069597069597,1.0,6.15435667700476,162.4865201161344,-4.1679389312977095,5.435114503816794,0.7175572519083969,-0.2773613193403298,0.239880059970015,-0.35082458770614694,1525.2747252747251,96.95321097311052,32.92826004030648,
1770995740166.587,1.1739130434782608,-5.9021739130434785,-0.5760869565217391,-1.1131059245960502,-9.31897067624177,-3.2076600837821663,4086.4468864468863,1925.2747252747251,1.0,6.15435667700476,162.4865201161344,-4.427480916030534,5.572519083969466,1.114503816793893,-0.2848575712143928,0.2518740629685157,-0.35082458770614694,1617.5824175824175,96.9560655340864,32.92826004030648,
1770995740186.1216,1.2391304347826086,-5.869565217391304,-0.5978260869565217,-1.0748055056852184,-9.292639138240574,-3.190903650508677,4109.89010989011,1947.2527472527472,1.0,6.15435667700476,162.4865201161344,-4.67175572519084,4.961832061068702,1.1755725190839694,-0.2833583208395802,0.24587706146926536,-0.35082458770614694,1698.9010989010987,96.95321097311052,32.92826004030648,
1770995740205.6565,1.2934782608695652,-5.793478260869565,-0.5869565217391304,-0.9718731298623579,-9.228007181328545,-3.2124476361460204,4112.820512820513,1960.4395604395604,1.0,6.15435667700476,162.4865201161344,-4.961832061068702,7.526717557251908,1.099236641221374,-0.2773613193403298,0.24587706146926536,-0.3523238380809595,1736.9963369963368,96.9560655340864,32.92826004030648,
1770995740225.1914,1.2173913043478262,-5.826086956521739,-0.6086956521739131,-1.0939557151406343,-9.218432076600838,-3.1932974266906045,4114.285714285714,1958.974358974359,1.0,6.15435667700476,162.4865201161344,-5.221374045801526,5.770992366412213,0.9770992366412213,-0.2773613193403298,0.24587706146926536,-0.3538230884557721,1720.14652014652,96.9560655340864,32.92826004030648,
1770995740244.7263,1.3043478260869565,-5.793478260869565,-0.5978260869565217,-0.9838420107719928,-9.18491921005386,-3.2244165170556554,4090.8424908424904,1926.7399267399267,1.0,6.15435667700476,162.4865201161344,-4.67175572519084,3.847328244274809,0.366412213740458,-0.2773613193403298,0.24137931034482757,-0.3493253373313343,1664.4688644688645,96.95321097311052,32.92826004030648,
1770995740264.2612,1.2065217391304348,-5.804347826086956,-0.5978260869565217,-1.0676241771394375,-9.20885697187313,-3.1693596648713345,4114.285714285714,1949.4505494505493,1.0,6.15435667700476,162.4865201161344,-4.396946564885496,2.015267175572519,0.33587786259541985,-0.2788605697151424,0.24137931034482757,-0.3523238380809595,1582.4175824175823,96.95892009787404,32.92826004030648,
1770995740283.796,1.2391304347826086,-5.8478260869565215,-0.5978260869565217,-1.0508677438659486,-9.2327947336924,-3.1813285457809695,4114.285714285714,1956.0439560439559,1.0,6.15435667700476,162.4865201161344,-4.061068702290076,1.816793893129771,-0.9312977099236641,-0.2788605697151424,0.2338830584707646,-0.34782608695652173,1491.5750915750914,96.95321097311052,32.92826004030648,
1770995740303.331,1.2282608695652173,-5.815217391304348,-0.6304347826086957,-1.0532615200478754,-9.237582286056254,-3.2435667265110713,4111.355311355311,1956.0439560439559,1.0,6.149251445418693,162.6214196762142,-3.9541984732824424,2.2442748091603053,-1.3129770992366412,-0.2773613193403298,0.24137931034482757,-0.3583208395802099,1413.1868131868132,96.95321097311052,32.92826004030648,
1770995740322.8655,1.1195652173913042,-5.804347826086956,-0.6739130434782609,-1.163375224416517,-9.220825852782765,-3.279473369239976,4087.912087912088,1925.2747252747251,1.0,6.15435667700476,162.4865201161344,-4.381679389312977,1.618320610687023,-1.5267175572519083,-0.27586206896551724,0.24587706146926536,-0.35082458770614694,1362.6373626373625,96.95035641494638,32.92826004030648,
1770995740342.4006,1.1630434782608696,-5.826086956521739,-0.6630434782608695,-1.1490125673249552,-9.21603830041891,-3.274685816876122,4111.355311355311,1947.9853479853477,1.0,6.15435667700476,162.4865201161344,-4.625954198473282,-0.8854961832061068,-1.7557251908396947,-0.272863568215892,0.24437781109445278,-0.3448275862068965,1345.054945054945,96.95321097311052,32.92826004030648,
1770995740361.9355,1.2282608695652173,-5.804347826086956,-0.6086956521739131,-1.1107121484141234,-9.201675643327349,-3.2172351885098744,4086.4468864468863,1921.6117216117216,1.0,6.149251445418693,162.6214196762142,-4.9465648854961835,-2.351145038167939,-1.8778625954198473,-0.27436281859070466,0.24737631184407796,-0.34182908545727136,1353.8461538461538,96.9560655340864,32.92826004030648,
1770995740381.4705,1.2391304347826086,-5.760869565217392,-0.6086956521739131,-1.0628366247755834,-9.194494314781569,-3.1813285457809695,4114.285714285714,1947.9853479853477,1.0,6.149251445418693,162.6214196762142,-4.67175572519084,-3.16030534351145,-1.9236641221374045,-0.2773613193403298,0.27436281859070466,-0.3568215892053973,1385.3479853479853,96.9560655340864,32.92826004030648,
1770995740401.0054,1.184782608695652,-5.695652173913043,-0.6086956521739131,-1.1154997007779772,-9.149012567324954,-3.178934769599042,4090.8424908424904,1923.8095238095236,1.0,6.149251445418693,162.6214196762142,-4.244274809160305,-3.7709923664122136,-2.4427480916030535,-0.2788605697151424,0.24737631184407796,-0.35082458770614694,1410.989010989011,96.95035641494638,32.92826004030648,
1770995740420.5403,1.2065217391304348,-5.717391304347826,-0.6521739130434783,-1.1059245960502693,-9.086774386594854,-3.1885098743267504,4115.750915750916,1954.5787545787543,1.0,6.149251445418693,162.6214196762142,-3.6030534351145036,-4.564885496183206,-2.8702290076335877,-0.27436281859070466,0.26686656671664166,-0.3568215892053973,1419.7802197802198,96.9560655340864,32.92826004030648,
1770995740440.075,1.1739130434782608,-5.739130434782608,-0.6630434782608695,-1.1178934769599043,-9.105924596050269,-3.245960502692998,4114.285714285714,1957.5091575091574,1.0,6.149251445418693,162.6214196762142,-3.145038167938931,-4.351145038167939,-2.8702290076335877,-0.27586206896551724,0.2608695652173913,-0.34182908545727136,1407.3260073260071,96.9560655340864,32.92826004030648,
1770995740459.61,1.0543478260869565,-5.771739130434782,-0.7282608695652174,-1.199281867145422,-9.158587672052663,-3.317773788150808,4112.820512820513,1963.3699633699632,1.0,6.15435667700476,162.4865201161344,-2.9770992366412212,-4.045801526717557,-3.145038167938931,-0.27436281859070466,0.24587706146926536,-0.3568215892053973,1379.4871794871794,96.95321097311052,32.92826004030648,
1770995740479.1448,1.0,-5.83695652173913,-0.7391304347826086,-1.2854578096947935,-9.22561340514662,-3.3512866546977857,4114.285714285714,1960.4395604395604,1.0,6.149251445418693,162.6214196762142,-2.2748091603053435,-4.0,-3.297709923664122,-0.27436281859070466,0.24737631184407796,-0.3523238380809595,1347.2527472527472,96.95321097311052,32.92826004030648,
1770995740498.6797,1.0217391304347825,-5.83695652173913,-0.8043478260869565,-1.2974266906044285,-9.213644524236983,-3.3752244165170557,4112.820512820513,1964.102564102564,1.0,6.149251445418693,162.6214196762142,-2.045801526717557,-2.717557251908397,-3.2061068702290076,-0.27136431784107945,0.25037481259370314,-0.36431784107946025,1315.7509157509157,96.95321097311052,32.92826004030648,
1770995740518.2146,0.9456521739130435,-5.739130434782608,-0.8695652173913043,-1.3333333333333333,-9.192100538599641,-3.461400359066427,4086.4468864468863,1926.7399267399267,1.0,6.149251445418693,162.6214196762142,-1.9236641221374045,-1.5114503816793892,-2.8091603053435112,-0.2788605697151424,0.2653673163418291,-0.35082458770614694,1297.4358974358975,96.95321097311052,32.92826004030648,
1770995740537.7495,0.9565217391304348,-5.684782608695652,-0.8695652173913043,-1.390783961699581,-9.110712148414123,-3.50688210652304,4114.285714285714,1950.18315018315,1.0,6.15435667700476,162.4865201161344,-1.618320610687023,-0.366412213740458,-2.8244274809160306,-0.27586206896551724,0.24137931034482757,-0.3568215892053973,1283.5164835164835,96.9617746644734,32.92826004030648,
1770995740557.2842,0.9782608695652174,-5.717391304347826,-0.8804347826086957,-1.3692399760622382,-9.105924596050269,-3.4709754637941352,4090.8424908424904,1923.8095238095236,1.0,6.149251445418693,162.6214196762142,-2.0,1.4809160305343512,-2.259541984732824,-0.27586206896551724,0.2368815592203898,-0.3493253373313343,1271.7948717948716,96.9560655340864,32.92826004030648,
1770995740576.819,0.9565217391304348,-5.673913043478261,-0.9021739130434783,-1.3644524236983842,-9.074805505685218,-3.5380011968880907,4115.750915750916,1955.311355311355,1.0,6.149251445418693,162.6214196762142,-2.519083969465649,2.717557251908397,-1.5419847328244274,-0.2698650674662669,0.2383808095952024,-0.3568215892053973,1265.9340659340658,96.95321097311052,32.92826004030648,
1770995740596.354,0.8695652173913043,-5.6521739130434785,-0.858695652173913,-1.412327947336924,-9.04129263913824,-3.514063435068821,4114.285714285714,1957.5091575091574,1.0,6.15435667700476,162.4865201161344,-2.900763358778626,2.9618320610687023,-1.4045801526717556,-0.2773613193403298,0.24137931034482757,-0.3613193403298351,1260.8058608058607,96.95321097311052,32.92826004030648,
1770995740615.889,0.9347826086956521,-5.695652173913043,-0.8152173913043478,-1.419509275882705,-9.07241172950329,-3.430281268701376,4114.285714285714,1958.2417582417581,1.0,6.149251445418693,162.6214196762142,-3.5877862595419847,2.5801526717557253,-1.648854961832061,-0.2788605697151424,0.239880059970015,-0.3448275862068965,1260.07326007326,96.95321097311052,32.92826004030648,
1770995740635.4238,0.967391304347826,-5.771739130434782,-0.717391304347826,-1.3500897666068223,-9.13704368641532,-3.3536804308797126,4114.285714285714,1958.974358974359,1.0,6.149251445418693,162.6214196762142,-3.9083969465648853,3.0839694656488548,-0.9465648854961831,-0.280359820089955,0.24587706146926536,-0.3583208395802099,1269.5970695970695,96.9560655340864,32.92826004030648,
1770995740654.9587,0.967391304347826,-5.858695652173913,-0.5978260869565217,-1.3405146618791142,-9.25673249551167,-3.253141831238779,4111.355311355311,1957.5091575091574,1.0,6.149251445418693,162.6214196762142,-4.351145038167939,3.1908396946564883,-0.5801526717557252,-0.2818590704647676,0.2563718140929535,-0.37181409295352325,1277.6556776556777,96.9560655340864,32.92826004030648,
1770995740674.4937,1.0326086956521738,-5.826086956521739,-0.5869565217391304,-1.2806702573309394,-9.249551166965889,-3.2076600837821663,4084.981684981685,1918.6813186813185,1.0,6.149251445418693,162.6214196762142,-4.595419847328244,4.091603053435114,-0.549618320610687,-0.27586206896551724,0.2638680659670165,-0.3538230884557721,1289.3772893772893,96.95035641494638,32.92826004030648,
1770995740694.0283,1.0978260869565217,-5.782608695652174,-0.5760869565217391,-1.20885697187313,-9.206463195691203,-3.1765409934171154,4114.285714285714,1947.2527472527472,1.0,6.149251445418693,162.6214196762142,-4.2748091603053435,4.396946564885496,0.0916030534351145,-0.2698650674662669,0.24587706146926536,-0.3523238380809595,1309.89010989011,96.95321097311052,32.92826004030648,
1770995740713.5632,1.1956521739130435,-5.717391304347826,-0.5760869565217391,-1.1202872531418313,-9.12028725314183,-3.1765409934171154,4089.377289377289,1928.2051282051282,1.0,6.149251445418693,162.6214196762142,-3.465648854961832,5.175572519083969,0.22900763358778625,-0.27586206896551724,0.26836581709145424,-0.3568215892053973,1336.263736263736,96.95035641494638,32.92826004030648,
1770995740733.098,1.2608695652173914,-5.739130434782608,-0.5217391304347826,-1.0149611011370436,-9.11310592459605,-3.128665469778576,4084.981684981685,1909.8901098901097,1.0,6.149251445418693,162.6214196762142,-3.145038167938931,3.877862595419847,0.564885496183206,-0.27586206896551724,0.2593703148425787,-0.3703148425787106,1355.3113553113553,96.95321097311052,32.92826004030648,
1770995740752.633,1.2934782608695652,-5.739130434782608,-0.532608695652174,-0.9982046678635548,-9.11310592459605,-3.1526032315978454,4112.820512820513,1950.18315018315,1.0,6.149251445418693,162.6214196762142,-3.2061068702290076,3.969465648854962,0.564885496183206,-0.280359820089955,0.2383808095952024,-0.3523238380809595,1367.032967032967,96.95321097311052,32.92826004030648,
1770995740772.168,1.2717391304347825,-5.793478260869565,-0.6413043478260869,-1.0269299820466786,-9.172950329144225,-3.2555356074207062,4111.355311355311,1955.311355311355,1.0,6.15435667700476,162.4865201161344,-2.778625954198473,3.0534351145038165,-0.061068702290076333,-0.27586206896551724,0.2518740629685157,-0.36881559220389803,1394.8717948717947,96.9560655340864,32.92826004030648,
1770995740791.703,1.108695652173913,-5.8478260869565215,-0.6304347826086957,-1.0748055056852184,-9.230400957510472,-3.291442250149611,4112.820512820513,1963.3699633699632,1.0,6.149251445418693,162.6214196762142,-2.4122137404580153,2.1221374045801524,-0.6106870229007634,-0.27436281859070466,0.24587706146926536,-0.3613193403298351,1438.095238095238,96.95321097311052,32.92826004030648,
1770995740811.2375,1.1630434782608696,-5.9021739130434785,-0.6847826086956521,-1.1921005385996408,-9.273488928785158,-3.305804907241173,4112.820512820513,1965.5677655677655,1.0,6.149251445418693,162.6214196762142,-2.183206106870229,0.8244274809160305,-1.450381679389313,-0.280359820089955,0.24137931034482757,-0.35532233883058467,1502.5641025641025,96.9560655340864,32.92826004030648,
1770995740830.7725,1.1304347826086956,-5.891304347826087,-0.6521739130434783,-1.1466187911430281,-9.316576900059845,-3.272292040694195,4112.820512820513,1965.5677655677655,1.0,6.15435667700476,162.4865201161344,-2.183206106870229,2.3053435114503817,-1.099236641221374,-0.280359820089955,0.24887556221889054,-0.3523238380809595,1585.3479853479853,96.9560655340864,32.92826004030648,
1770995740850.3074,1.065217391304348,-5.858695652173913,-0.6739130434782609,-1.2040694195092758,-9.297426690604429,-3.296229802513465,4114.285714285714,1961.172161172161,1.0,6.15435667700476,162.4865201161344,-2.8702290076335877,1.8778625954198473,-0.5954198473282443,-0.2788605697151424,0.24287856071964017,-0.34782608695652173,1667.3992673992673,96.95892009787404,32.92826004030648,
1770995740869.8423,1.065217391304348,-5.826086956521739,-0.6195652173913043,-1.2280071813285458,-9.259126271693596,-3.262716935966487,4089.377289377289,1932.6007326007325,1.0,6.149251445418693,162.6214196762142,-3.282442748091603,1.83206106870229,-0.549618320610687,-0.27436281859070466,0.2653673163418291,-0.35982008995502246,1713.5531135531135,96.95892009787404,32.92826004030648,
1770995740889.3772,1.1304347826086956,-5.793478260869565,-0.5434782608695652,-1.2160383004189108,-9.192100538599641,-3.1717534410532613,4114.285714285714,1951.6483516483515,1.0,6.149251445418693,162.6214196762142,-3.541984732824427,0.183206106870229,-0.8854961832061068,-0.280359820089955,0.239880059970015,-0.35532233883058467,1710.6227106227104,96.95035641494638,32.92826004030648,
1770995740908.912,1.2173913043478262,-5.804347826086956,-0.5652173913043478,-1.1131059245960502,-9.194494314781569,-3.128665469778576,4114.285714285714,1956.7765567765566,1.0,6.15435667700476,162.4865201161344,-4.183206106870228,0.2900763358778626,-1.3587786259541985,-0.2863568215892054,0.2368815592203898,-0.3538230884557721,1661.5384615384614,96.95321097311052,32.92826004030648,
1770995740928.447,1.1304347826086956,-5.793478260869565,-0.5760869565217391,-1.156193895870736,-9.230400957510472,-3.1741472172351886,4112.820512820513,1963.3699633699632,1.0,6.149251445418693,162.6214196762142,-3.5114503816793894,0.38167938931297707,-0.6870229007633587,-0.27436281859070466,0.24287856071964017,-0.3583208395802099,1597.8021978021977,96.9560655340864,32.92826004030648,
1770995740947.9817,1.141304347826087,-5.815217391304348,-0.5652173913043478,-1.187312986235787,-9.20885697187313,-3.1717534410532613,4114.285714285714,1960.4395604395604,1.0,6.149251445418693,162.6214196762142,-3.145038167938931,-0.6870229007633587,-1.8015267175572518,-0.272863568215892,0.2518740629685157,-0.35982008995502246,1528.937728937729,96.95892009787404,32.92826004030648,
1770995740967.5166,1.141304347826087,-5.815217391304348,-0.5652173913043478,-1.170556552962298,-9.206463195691203,-3.1382405745062836,4115.750915750916,1958.2417582417581,1.0,6.149251445418693,162.6214196762142,-3.099236641221374,-0.8244274809160305,-2.2748091603053435,-0.2833583208395802,0.25037481259370314,-0.3448275862068965,1451.2820512820513,96.95892009787404,32.92826004030648,
1770995740987.0515,1.141304347826087,-5.858695652173913,-0.5869565217391304,-1.153800119688809,-9.247157390783961,-3.1597845601436263,4114.285714285714,1958.2417582417581,1.0,6.149251445418693,162.6214196762142,-2.9923664122137406,-0.9923664122137404,-2.229007633587786,-0.2773613193403298,0.2518740629685157,-0.35082458770614694,1378.7545787545787,96.9560655340864,32.92826004030648,
1770995741006.5864,1.0543478260869565,-5.8478260869565215,-0.6739130434782609,-1.2375822860562538,-9.237582286056254,-3.241172950329144,4114.285714285714,1957.5091575091574,1.0,6.149251445418693,162.6214196762142,-3.2671755725190836,0.5801526717557252,-2.045801526717557,-0.26836581709145424,0.24737631184407796,-0.3538230884557721,1327.4725274725274,96.95892009787404,32.92826004030648,
1770995741026.121,1.0217391304347825,-5.771739130434782,-0.6847826086956521,-1.2854578096947935,-9.194494314781569,-3.289048473967684,4090.8424908424904,1926.7399267399267,1.0,6.15435667700476,162.4865201161344,-2.5343511450381677,0.7786259541984732,-1.9389312977099236,-0.2698650674662669,0.239880059970015,-0.3523238380809595,1304.7619047619046,96.9617746644734,32.92826004030648,
1770995741045.6562,1.076086956521739,-5.760869565217392,-0.6847826086956521,-1.2495511669658887,-9.149012567324954,-3.262716935966487,4114.285714285714,1949.4505494505493,1.0,6.149251445418693,162.6214196762142,-2.8091603053435112,-0.10687022900763359,-2.519083969465649,-0.27586206896551724,0.2638680659670165,-0.3568215892053973,1312.8205128205127,96.95892009787404,32.92826004030648,
1770995741065.191,1.065217391304348,-5.804347826086956,-0.6956521739130435,-1.2064631956912029,-9.18491921005386,-3.291442250149611,4114.285714285714,1956.0439560439559,1.0,6.149251445418693,162.6214196762142,-2.610687022900763,1.0687022900763359,-1.7557251908396947,-0.272863568215892,0.24437781109445278,-0.3583208395802099,1335.5311355311355,96.95812732738086,32.923234939627584,
1770995741084.7258,1.0108695652173914,-5.826086956521739,-0.75,-1.2854578096947935,-9.228007181328545,-3.3847995212447635,4112.820512820513,1963.3699633699632,1.0,6.15435667700476,162.4865201161344,-2.549618320610687,3.145038167938931,-1.0381679389312977,-0.2833583208395802,0.2563718140929535,-0.35532233883058467,1362.6373626373625,96.9524182489084,32.923234939627584,
1770995741104.2607,0.9565217391304348,-5.782608695652174,-0.7826086956521738,-1.3524835427887492,-9.199281867145421,-3.4063435068821066,4086.4468864468863,1926.007326007326,1.0,6.15435667700476,162.4865201161344,-2.5343511450381677,4.412213740458015,-1.1603053435114503,-0.2698650674662669,0.24587706146926536,-0.3493253373313343,1383.8827838827838,96.95812732738086,32.923234939627584,
1770995741123.7957,1.0326086956521738,-5.75,-0.7282608695652174,-1.2854578096947935,-9.12986235786954,-3.3632555356074207,4114.285714285714,1949.4505494505493,1.0,6.15435667700476,162.4865201161344,-2.6564885496183206,4.977099236641221,-1.3282442748091603,-0.2863568215892054,0.24287856071964017,-0.3583208395802099,1394.8717948717947,96.9524182489084,32.923234939627584,
1770995741143.3306,1.076086956521739,-5.782608695652174,-0.7065217391304348,-1.2375822860562538,-9.151406343506881,-3.305804907241173,4086.4468864468863,1921.6117216117216,1.0,6.15435667700476,162.4865201161344,-3.0839694656488548,5.267175572519084,-0.9312977099236641,-0.2818590704647676,0.24737631184407796,-0.3493253373313343,1383.8827838827838,96.94956371388972,32.923234939627584,
1770995741162.8655,1.0434782608695652,-5.826086956521739,-0.6304347826086957,-1.2758827049670856,-9.211250748055056,-3.250748055056852,4114.285714285714,1948.7179487179485,1.0,6.15435667700476,162.4865201161344,-3.5114503816793894,5.969465648854961,-0.48854961832061067,-0.27136431784107945,0.2638680659670165,-0.3583208395802099,1359.7069597069597,96.9524182489084,32.923234939627584,
1770995741182.4,1.076086956521739,-5.858695652173913,-0.5652173913043478,-1.2543387193297426,-9.26391382405745,-3.1956912028725313,4089.377289377289,1928.9377289377287,1.0,6.15435667700476,162.4865201161344,-3.66412213740458,5.984732824427481,-0.6412213740458015,-0.26836581709145424,0.2698650674662669,-0.3568215892053973,1327.4725274725274,96.95527278673879,32.923234939627584,
1770995741201.935,1.1521739130434783,-5.804347826086956,-0.5434782608695652,-1.172950329144225,-9.192100538599641,-3.1238779174147218,4114.285714285714,1950.18315018315,1.0,6.15435667700476,162.4865201161344,-3.66412213740458,6.198473282442748,-0.8702290076335878,-0.2863568215892054,0.23238380809595202,-0.3523238380809595,1309.1575091575091,96.9524182489084,32.923234939627584,
1770995741221.47,1.0978260869565217,-5.815217391304348,-0.5434782608695652,-1.187312986235787,-9.242369838420107,-3.1334530221424295,4114.285714285714,1956.0439560439559,1.0,6.15435667700476,162.4865201161344,-4.122137404580153,6.213740458015267,-0.3511450381679389,-0.280359820089955,0.2368815592203898,-0.36281859070464767,1307.6923076923076,96.96383641710011,32.923234939627584,
1770995741241.005,1.1739130434782608,-5.869565217391304,-0.5217391304347826,-1.168162776780371,-9.218432076600838,-3.1573907839616995,4112.820512820513,1963.3699633699632,1.0,6.15435667700476,162.4865201161344,-3.9847328244274807,6.1679389312977095,-0.9007633587786259,-0.27586206896551724,0.24737631184407796,-0.3523238380809595,1310.6227106227104,96.95527278673879,32.923234939627584,
1770995741260.5398,1.1630434782608696,-5.826086956521739,-0.5,-1.153800119688809,-9.247157390783961,-3.087971274685817,4086.4468864468863,1926.007326007326,1.0,6.15435667700476,162.4865201161344,-4.076335877862595,5.801526717557252,-0.4427480916030534,-0.2773613193403298,0.24887556221889054,-0.3568215892053973,1324.5421245421244,96.9524182489084,32.923234939627584,
1770995741280.0747,1.1739130434782608,-5.891304347826087,-0.5652173913043478,-1.0963494913225613,-9.261520047875523,-3.1238779174147218,4115.750915750916,1955.311355311355,1.0,6.15435667700476,162.4865201161344,-3.8167938931297707,4.9465648854961835,-0.13740458015267176,-0.27586206896551724,0.24887556221889054,-0.34182908545727136,1337.7289377289376,96.94956371388972,32.923234939627584,
1770995741299.6096,1.2065217391304348,-5.880434782608695,-0.4891304347826087,-1.1274685816876122,-9.26391382405745,-3.1214841412327945,4111.355311355311,1956.7765567765566,1.0,6.15435667700476,162.4865201161344,-3.969465648854962,4.381679389312977,-0.183206106870229,-0.2773613193403298,0.2623688155922039,-0.35532233883058467,1356.0439560439559,96.9524182489084,32.923234939627584,
1770995741319.1443,1.2608695652173914,-5.880434782608695,-0.5108695652173912,-1.0748055056852184,-9.278276481149012,-3.087971274685817,4112.820512820513,1963.3699633699632,1.0,6.159461908590828,162.35184417737258,-4.1679389312977095,4.793893129770992,-0.916030534351145,-0.27436281859070466,0.2593703148425787,-0.3613193403298351,1372.8937728937728,96.95812732738086,32.923234939627584,
1770995741338.6792,1.2391304347826086,-5.913043478260869,-0.5217391304347826,-1.0508677438659486,-9.33572710951526,-3.092758827049671,4087.912087912088,1926.7399267399267,1.0,6.159461908590828,162.35184417737258,-3.6030534351145036,4.290076335877862,-1.0076335877862594,-0.2818590704647676,0.2353823088455772,-0.35532233883058467,1379.4871794871794,96.95812732738086,32.923234939627584,
1770995741358.214,1.2065217391304348,-5.858695652173913,-0.5108695652173912,-1.0819868342309993,-9.302214242968283,-3.1119090365050868,4112.820512820513,1954.5787545787543,1.0,6.15435667700476,162.4865201161344,-3.6488549618320607,4.702290076335878,-1.0076335877862594,-0.26686656671664166,0.24587706146926536,-0.34632683658170915,1375.091575091575,96.95527278673879,32.923234939627584,
1770995741377.749,1.2282608695652173,-5.826086956521739,-0.5434782608695652,-1.0652304009575104,-9.237582286056254,-3.1143028126870136,4112.820512820513,1963.3699633699632,1.0,6.159461908590828,162.35184417737258,-3.236641221374046,4.519083969465648,-1.5572519083969465,-0.27586206896551724,0.24437781109445278,-0.3403298350824588,1358.2417582417581,96.94956371388972,32.923234939627584,
1770995741397.284,1.184782608695652,-5.793478260869565,-0.5760869565217391,-1.0652304009575104,-9.204069419509276,-3.1645721125074804,4112.820512820513,1964.8351648351647,1.0,6.159461908590828,162.35184417737258,-3.5877862595419847,4.290076335877862,-1.450381679389313,-0.27586206896551724,0.24737631184407796,-0.35532233883058467,1342.8571428571427,96.94956371388972,32.923234939627584,
1770995741416.8188,1.184782608695652,-5.804347826086956,-0.5217391304347826,-1.1035308198683422,-9.192100538599641,-3.1334530221424295,4112.820512820513,1965.5677655677655,1.0,6.159461908590828,162.35184417737258,-3.847328244274809,2.8396946564885495,-1.1450381679389312,-0.26686656671664166,0.25487256371814093,-0.34332833583208394,1332.6007326007325,96.94385465228744,32.923234939627584,
1770995741436.3535,1.2608695652173914,-5.804347826086956,-0.4782608695652174,-1.0652304009575104,-9.182525433871932,-3.0831837223219627,4111.355311355311,1960.4395604395604,1.0,6.159461908590828,162.35184417737258,-4.412213740458015,0.8091603053435115,-1.5725190839694656,-0.272863568215892,0.24137931034482757,-0.335832083958021,1325.2747252747251,96.95527278673879,32.923234939627584,
1770995741455.8884,1.2173913043478262,-5.815217391304348,-0.532608695652174,-1.0532615200478754,-9.199281867145421,-3.0951526032315977,4111.355311355311,1958.2417582417581,1.0,6.159461908590828,162.35184417737258,-4.381679389312977,-0.04580152671755725,-1.816793893129771,-0.27586206896551724,0.2608695652173913,-0.35532233883058467,1334.7985347985348,96.9524182489084,32.923234939627584,
1770995741475.423,1.1521739130434783,-5.815217391304348,-0.5434782608695652,-1.144225014961101,-9.228007181328545,-3.116696588868941,4112.820512820513,1964.102564102564,1.0,6.159461908590828,162.35184417737258,-4.3206106870229,-0.21374045801526717,-1.8931297709923662,-0.27586206896551724,0.25037481259370314,-0.34782608695652173,1373.6263736263736,96.94956371388972,32.923234939627584,
1770995741494.9585,1.1195652173913042,-5.83695652173913,-0.5652173913043478,-1.177737881508079,-9.239976062238181,-3.128665469778576,4090.8424908424904,1928.2051282051282,1.0,6.159461908590828,162.35184417737258,-4.030534351145038,-0.9312977099236641,-2.4732824427480917,-0.272863568215892,0.2383808095952024,-0.35082458770614694,1426.3736263736262,96.9524182489084,32.923234939627584,
1770995741514.4932,1.1195652173913042,-5.83695652173913,-0.5978260869565217,-1.175344105326152,-9.242369838420107,-3.1765409934171154,4115.750915750916,1956.0439560439559,1.0,6.159461908590828,162.35184417737258,-4.076335877862595,-0.22900763358778625,-2.3206106870229006,-0.272863568215892,0.27136431784107945,-0.3538230884557721,1502.5641025641025,96.94956371388972,32.923234939627584,
1770995741534.028,1.0869565217391304,-5.858695652173913,-0.6086956521739131,-1.2256134051466188,-9.261520047875523,-3.1861160981448235,4114.285714285714,1957.5091575091574,1.0,6.164567140176896,162.21739130434784,-4.473282442748092,0.32061068702290074,-2.045801526717557,-0.27436281859070466,0.25487256371814093,-0.35532233883058467,1582.4175824175823,96.94385465228744,32.923234939627584,
1770995741553.563,1.0978260869565217,-5.869565217391304,-0.6195652173913043,-1.2136445242369838,-9.273488928785158,-3.2124476361460204,4111.355311355311,1957.5091575091574,1.0,6.159461908590828,162.35184417737258,-4.99236641221374,0.030534351145038167,-1.8625954198473282,-0.272863568215892,0.2518740629685157,-0.35532233883058467,1631.5018315018315,96.95527278673879,32.923234939627584,
1770995741573.0977,1.1630434782608696,-5.83695652173913,-0.5978260869565217,-1.156193895870736,-9.220825852782765,-3.2004787552363854,4114.285714285714,1958.2417582417581,1.0,6.159461908590828,162.35184417737258,-5.251908396946565,-0.04580152671755725,-2.0610687022900764,-0.27436281859070466,0.25337331334332835,-0.3403298350824588,1639.5604395604394,96.95812732738086,32.923234939627584,
1770995741592.6326,1.2173913043478262,-5.826086956521739,-0.5543478260869565,-1.0915619389587072,-9.211250748055056,-3.1549970077797727,4115.750915750916,1964.8351648351647,1.0,6.159461908590828,162.35184417737258,-5.267175572519084,-0.030534351145038167,-2.595419847328244,-0.2653673163418291,0.24587706146926536,-0.34632683658170915,1616.8498168498168,96.95527278673879,32.923234939627584,
1770995741612.1675,1.2391304347826086,-5.826086956521739,-0.6304347826086957,-1.0628366247755834,-9.20885697187313,-3.1980849790544585,4086.4468864468863,1926.7399267399267,1.0,6.159461908590828,162.35184417737258,-4.9465648854961835,0.15267175572519084,-2.091603053435114,-0.27586206896551724,0.24587706146926536,-0.35082458770614694,1569.9633699633698,96.9524182489084,32.923234939627584,
1770995741631.7024,1.1630434782608696,-5.793478260869565,-0.5978260869565217,-1.1011370436864152,-9.21603830041891,-3.1837223219628963,4114.285714285714,1949.4505494505493,1.0,6.159461908590828,162.35184417737258,-5.267175572519084,0.030534351145038167,-1.9236641221374045,-0.2698650674662669,0.2623688155922039,-0.3538230884557721,1501.098901098901,96.9524182489084,32.923234939627584,
1770995741651.2373,1.25,-5.815217391304348,-0.5652173913043478,-1.0819868342309993,-9.211250748055056,-3.1717534410532613,4090.8424908424904,1923.8095238095236,1.0,6.164567140176896,162.21739130434784,-4.854961832061068,-0.6106870229007634,-2.4732824427480917,-0.2863568215892054,0.22788605697151423,-0.3403298350824588,1419.7802197802198,96.9524182489084,32.923234939627584,
1770995741670.7722,1.2391304347826086,-5.8478260869565215,-0.532608695652174,-1.0341113105924595,-9.21603830041891,-3.1621783363255536,4114.285714285714,1948.7179487179485,1.0,6.159461908590828,162.35184417737258,-5.206106870229007,-1.2519083969465647,-2.5343511450381677,-0.2698650674662669,0.272863568215892,-0.35082458770614694,1358.974358974359,96.94670918168272,32.923234939627584,
1770995741690.307,1.1739130434782608,-5.9021739130434785,-0.5869565217391304,-1.1011370436864152,-9.261520047875523,-3.1502094554159186,4115.750915750916,1961.9047619047617,1.0,6.159461908590828,162.35184417737258,-5.114503816793893,-1.3282442748091603,-2.595419847328244,-0.27586206896551724,0.2383808095952024,-0.34332833583208394,1324.5421245421244,96.9524182489084,32.923234939627584,
1770995741709.8418,1.141304347826087,-5.869565217391304,-0.6086956521739131,-1.141831238779174,-9.28785158587672,-3.1741472172351886,4111.355311355311,1958.974358974359,1.0,6.159461908590828,162.35184417737258,-4.625954198473282,-1.9083969465648853,-2.6564885496183206,-0.27136431784107945,0.24737631184407796,-0.3448275862068965,1322.3443223443223,96.9524182489084,32.923234939627584,
1770995741729.3767,1.141304347826087,-5.815217391304348,-0.6195652173913043,-1.158587672052663,-9.251944943147816,-3.245960502692998,4087.912087912088,1925.2747252747251,1.0,6.164567140176896,162.21739130434784,-4.396946564885496,-1.8015267175572518,-3.16030534351145,-0.272863568215892,0.25037481259370314,-0.3448275862068965,1345.7875457875457,96.95812732738086,32.923234939627584,
1770995741748.9116,1.141304347826087,-5.83695652173913,-0.6304347826086957,-1.168162776780371,-9.220825852782765,-3.1956912028725313,4115.750915750916,1955.311355311355,1.0,6.164567140176896,162.21739130434784,-5.145038167938931,-2.3206106870229006,-2.9923664122137406,-0.2863568215892054,0.24737631184407796,-0.35082458770614694,1375.8241758241757,96.94956371388972,32.923234939627584,
1770995741768.4463,1.1739130434782608,-5.793478260869565,-0.6195652173913043,-1.1394374625972472,-9.192100538599641,-3.2004787552363854,4111.355311355311,1957.5091575091574,1.0,6.164567140176896,162.21739130434784,-5.32824427480916,-2.3206106870229006,-2.778625954198473,-0.26836581709145424,0.2518740629685157,-0.3613193403298351,1396.3369963369962,96.9524182489084,32.923234939627584,
1770995741787.9814,1.1739130434782608,-5.793478260869565,-0.6413043478260869,-1.132256134051466,-9.153800119688809,-3.2196289646918013,4114.285714285714,1958.2417582417581,1.0,6.164567140176896,162.21739130434784,-4.99236641221374,-1.83206106870229,-2.4885496183206106,-0.272863568215892,0.272863568215892,-0.3538230884557721,1400.0,96.94956371388972,32.923234939627584,
1770995741807.516,1.1521739130434783,-5.771739130434782,-0.6304347826086957,-1.144225014961101,-9.16098144823459,-3.241172950329144,4090.8424908424904,1926.7399267399267,1.0,6.164567140176896,162.21739130434784,-4.625954198473282,-1.9541984732824427,-2.5801526717557253,-0.280359820089955,0.272863568215892,-0.34182908545727136,1392.6739926739926,96.9524182489084,32.923234939627584,
1770995741827.051,1.1521739130434783,-5.782608695652174,-0.6304347826086957,-1.1394374625972472,-9.156193895870736,-3.241172950329144,4114.285714285714,1949.4505494505493,1.0,6.164567140176896,162.21739130434784,-4.748091603053435,-2.1374045801526718,-2.854961832061069,-0.27586206896551724,0.2623688155922039,-0.35082458770614694,1380.2197802197802,96.94670918168272,32.923234939627584,
1770995741846.586,1.1304347826086956,-5.782608695652174,-0.6847826086956521,-1.172950329144225,-9.192100538599641,-3.253141831238779,4114.285714285714,1956.0439560439559,1.0,6.164567140176896,162.21739130434784,-4.381679389312977,-1.6335877862595418,-2.748091603053435,-0.2773613193403298,0.2698650674662669,-0.35982008995502246,1356.0439560439559,96.94670918168272,32.923234939627584,
1770995741866.1208,1.1195652173913042,-5.793478260869565,-0.6847826086956521,-1.189706762417714,-9.17773788150808,-3.289048473967684,4109.89010989011,1956.0439560439559,1.0,6.164567140176896,162.21739130434784,-4.580152671755725,-1.1603053435114503,-2.9618320610687023,-0.27436281859070466,0.2518740629685157,-0.35532233883058467,1327.4725274725274,96.94956371388972,32.923234939627584,
1770995741885.6558,1.076086956521739,-5.771739130434782,-0.6956521739130435,-1.2280071813285458,-9.16816277678037,-3.301017354877319,4114.285714285714,1958.2417582417581,1.0,6.164567140176896,162.21739130434784,-4.488549618320611,-0.6717557251908397,-2.259541984732824,-0.280359820089955,0.24587706146926536,-0.35082458770614694,1304.0293040293038,96.9524182489084,32.923234939627584,
1770995741905.191,1.0978260869565217,-5.793478260869565,-0.6630434782608695,-1.2136445242369838,-9.187312986235787,-3.277079593058049,4114.285714285714,1958.2417582417581,1.0,6.164567140176896,162.21739130434784,-4.900763358778626,-0.8396946564885496,-2.1068702290076335,-0.27586206896551724,0.25037481259370314,-0.35082458770614694,1296.7032967032967,96.94956371388972,32.923234939627584,
1770995741924.7256,1.1304347826086956,-5.815217391304348,-0.6304347826086957,-1.189706762417714,-9.192100538599641,-3.238779174147217,4112.820512820513,1963.3699633699632,1.0,6.164567140176896,162.21739130434784,-5.32824427480916,-1.1450381679389312,-2.3664122137404577,-0.27436281859070466,0.2563718140929535,-0.3448275862068965,1293.7728937728937,96.94670918168272,32.923234939627584,
1770995741944.2605,1.1304347826086956,-5.793478260869565,-0.6521739130434783,-1.163375224416517,-9.21603830041891,-3.233991621783363,4112.820512820513,1964.8351648351647,1.0,6.164567140176896,162.21739130434784,-5.251908396946565,-0.9465648854961831,-2.045801526717557,-0.272863568215892,0.2653673163418291,-0.3583208395802099,1293.040293040293,96.95812732738086,32.923234939627584,
1770995741963.7952,1.141304347826087,-5.804347826086956,-0.6413043478260869,-1.175344105326152,-9.189706762417714,-3.241172950329144,4089.377289377289,1940.6593406593406,1.0,6.164567140176896,162.21739130434784,-5.1603053435114505,-0.32061068702290074,-1.6946564885496183,-0.2773613193403298,0.24137931034482757,-0.3523238380809595,1301.8315018315018,96.9524182489084,32.923234939627584,
1770995741983.33,1.1521739130434783,-5.804347826086956,-0.6195652173913043,-1.151406343506882,-9.196888090963494,-3.222022740873728,4114.285714285714,1953.8461538461538,1.0,6.164567140176896,162.21739130434784,-5.236641221374046,-0.7938931297709924,-1.816793893129771,-0.2773613193403298,0.24437781109445278,-0.3523238380809595,1317.9487179487178,96.9524182489084,32.923234939627584,
1770995742002.865,1.1956521739130435,-5.815217391304348,-0.5978260869565217,-1.1178934769599043,-9.192100538599641,-3.2196289646918013,4112.820512820513,1962.6373626373625,1.0,6.164567140176896,162.21739130434784,-5.038167938931298,-1.1450381679389312,-2.213740458015267,-0.27436281859070466,0.24437781109445278,-0.3493253373313343,1332.6007326007325,96.95527278673879,32.923234939627584,
1770995742022.4,1.1956521739130435,-5.826086956521739,-0.6521739130434783,-1.1178934769599043,-9.211250748055056,-3.2244165170556554,4108.424908424908,1951.6483516483515,1.0,6.169672371762964,162.08316094331818,-5.007633587786259,-0.8091603053435115,-1.9389312977099236,-0.2788605697151424,0.24287856071964017,-0.3523238380809595,1340.6593406593406,96.94670918168272,32.923234939627584,
1770995742041.9348,1.1956521739130435,-5.83695652173913,-0.6413043478260869,-1.0915619389587072,-9.228007181328545,-3.2435667265110713,4114.285714285714,1956.7765567765566,1.0,6.164567140176896,162.21739130434784,-4.778625954198473,-0.9465648854961831,-2.33587786259542,-0.27436281859070466,0.25487256371814093,-0.3403298350824588,1341.3919413919414,96.94670918168272,32.923234939627584,
1770995742061.4695,1.2173913043478262,-5.83695652173913,-0.5869565217391304,-1.0771992818671454,-9.268701376421305,-3.210053859964093,4106.959706959707,1955.311355311355,1.0,6.164567140176896,162.21739130434784,-4.549618320610687,-1.129770992366412,-2.4732824427480917,-0.2773613193403298,0.24437781109445278,-0.34332833583208394,1345.7875457875457,96.94750185959397,32.92826004030648,
1770995742081.0044,1.25,-5.880434782608695,-0.6521739130434783,-1.0604428485936566,-9.26391382405745,-3.210053859964093,4114.285714285714,1957.5091575091574,1.0,6.169672371762964,162.08316094331818,-4.488549618320611,0.13740458015267176,-2.3053435114503817,-0.2773613193403298,0.24887556221889054,-0.3448275862068965,1356.7765567765566,96.95892009787404,32.92826004030648,
1770995742100.5393,1.2065217391304348,-5.869565217391304,-0.7391304347826086,-1.0388988629563136,-9.290245362058647,-3.291442250149611,4114.285714285714,1958.974358974359,1.0,6.169672371762964,162.08316094331818,-3.7862595419847325,1.0229007633587786,-1.7404580152671756,-0.27436281859070466,0.24887556221889054,-0.34782608695652173,1365.5677655677655,96.9560655340864,32.92826004030648,
1770995742120.0742,1.1195652173913042,-5.771739130434782,-0.7391304347826086,-1.165769000598444,-9.242369838420107,-3.3800119688809094,4089.377289377289,1931.8681318681317,1.0,6.169672371762964,162.08316094331818,-3.7862595419847325,-0.5190839694656488,-2.396946564885496,-0.27436281859070466,0.24587706146926536,-0.33883058470764615,1363.3699633699632,96.95892009787404,32.92826004030648,
1770995742139.6091,1.2391304347826086,-5.75,-0.7065217391304348,-1.1226810293237581,-9.134649910233392,-3.3273488928785158,4115.750915750916,1957.5091575091574,1.0,6.169672371762964,162.08316094331818,-4.290076335877862,-2.259541984732824,-2.8702290076335877,-0.2773613193403298,0.24587706146926536,-0.34632683658170915,1354.5787545787546,96.95892009787404,32.92826004030648,
1770995742159.144,1.3043478260869565,-5.75,-0.6195652173913043,-1.0029922202274086,-9.125074805505685,-3.245960502692998,4114.285714285714,1958.2417582417581,1.0,6.169672371762964,162.08316094331818,-5.114503816793893,-2.3053435114503817,-2.381679389312977,-0.2833583208395802,0.26836581709145424,-0.35532233883058467,1348.7179487179487,96.9617746644734,32.92826004030648,
1770995742178.6787,1.2065217391304348,-5.804347826086956,-0.6086956521739131,-1.0365050867743866,-9.182525433871932,-3.214841412327947,4108.424908424908,1950.9157509157508,1.0,6.169672371762964,162.08316094331818,-5.221374045801526,-2.595419847328244,-2.549618320610687,-0.2788605697151424,0.2578710644677661,-0.35532233883058467,1351.6483516483515,96.9560655340864,32.92826004030648,
1770995742198.2136,1.1521739130434783,-5.83695652173913,-0.6304347826086957,-1.1825254338719329,-9.218432076600838,-3.233991621783363,4114.285714285714,1956.7765567765566,1.0,6.169672371762964,162.08316094331818,-4.396946564885496,-3.541984732824427,-3.7862595419847325,-0.2773613193403298,0.25037481259370314,-0.35982008995502246,1378.021978021978,96.95321097311052,32.92826004030648,
1770995742217.7483,1.1630434782608696,-5.826086956521739,-0.6195652173913043,-1.170556552962298,-9.25673249551167,-3.2196289646918013,4114.285714285714,1958.974358974359,1.0,6.169672371762964,162.08316094331818,-4.748091603053435,-3.1908396946564883,-3.969465648854962,-0.2773613193403298,0.24437781109445278,-0.35532233883058467,1447.6190476190475,96.9560655340864,32.92826004030648,
1770995742237.2834,1.1521739130434783,-5.858695652173913,-0.5869565217391304,-1.1298623578695393,-9.275882704967085,-3.1693596648713345,4114.285714285714,1958.2417582417581,1.0,6.169672371762964,162.08316094331818,-5.3893129770992365,-2.2748091603053435,-3.0229007633587783,-0.27586206896551724,0.24737631184407796,-0.34782608695652173,1550.9157509157508,96.95321097311052,32.92826004030648,
1770995742256.8184,1.1521739130434783,-5.923913043478261,-0.6521739130434783,-1.16098144823459,-9.326152004787552,-3.214841412327947,4114.285714285714,1958.974358974359,1.0,6.169672371762964,162.08316094331818,-4.977099236641221,-1.2519083969465647,-2.763358778625954,-0.272863568215892,0.24887556221889054,-0.3403298350824588,1638.8278388278386,96.95321097311052,32.92826004030648,
1770995742276.3533,1.1521739130434783,-5.826086956521739,-0.6956521739130435,-1.16098144823459,-9.292639138240574,-3.312986235786954,4090.8424908424904,1927.4725274725274,1.0,6.169672371762964,162.08316094331818,-5.221374045801526,-1.4809160305343512,-3.297709923664122,-0.2833583208395802,0.24587706146926536,-0.36281859070464767,1677.6556776556774,96.9560655340864,32.92826004030648,
1770995742295.8882,1.25,-5.760869565217392,-0.5978260869565217,-1.0748055056852184,-9.163375224416518,-3.226810293237582,4114.285714285714,1950.18315018315,1.0,6.169672371762964,162.08316094331818,-5.526717557251908,-3.5114503816793894,-3.7709923664122136,-0.27436281859070466,0.26836581709145424,-0.35082458770614694,1665.201465201465,96.9560655340864,32.92826004030648,
1770995742315.4229,1.3695652173913042,-5.760869565217392,-0.532608695652174,-0.926391382405745,-9.158587672052663,-3.1262716935966486,4114.285714285714,1956.0439560439559,1.0,6.169672371762964,162.08316094331818,-5.511450381679389,-3.9847328244274807,-3.66412213740458,-0.2773613193403298,0.24437781109445278,-0.35532233883058467,1605.128205128205,96.95892009787404,32.92826004030648,
1770995742334.9578,1.3695652173913042,-5.858695652173913,-0.5978260869565217,-0.8856971873129862,-9.247157390783961,-3.1382405745062836,4108.424908424908,1950.18315018315,1.0,6.174777603349032,161.9491525423729,-4.961832061068702,-3.4198473282442747,-3.3587786259541983,-0.280359820089955,0.24287856071964017,-0.34632683658170915,1526.7399267399267,96.95035641494638,32.92826004030648,
1770995742354.493,1.2826086956521738,-5.83695652173913,-0.5760869565217391,-1.0077797725912627,-9.254338719329743,-3.190903650508677,4086.4468864468863,1922.344322344322,1.0,6.174777603349032,161.9491525423729,-4.015267175572519,-4.229007633587786,-3.7557251908396947,-0.2818590704647676,0.25337331334332835,-0.34632683658170915,1449.084249084249,96.94750185959397,32.92826004030648,
1770995742374.0276,1.2826086956521738,-5.782608695652174,-0.5978260869565217,-1.0317175344105325,-9.182525433871932,-3.1861160981448235,4114.285714285714,1947.9853479853477,1.0,6.169672371762964,162.08316094331818,-3.877862595419847,-5.541984732824427,-4.580152671755725,-0.2818590704647676,0.24587706146926536,-0.3538230884557721,1384.6153846153845,96.95321097311052,32.92826004030648,
1770995742393.5625,1.2826086956521738,-5.782608695652174,-0.6086956521739131,-0.9910233393177738,-9.16098144823459,-3.214841412327947,4092.307692307692,1929.6703296703295,1.0,6.169672371762964,162.08316094331818,-4.2748091603053435,-5.984732824427481,-4.061068702290076,-0.28785607196401797,0.24737631184407796,-0.34782608695652173,1336.9963369963368,96.94750185959397,32.92826004030648,
1770995742413.0974,1.2065217391304348,-5.804347826086956,-0.6413043478260869,-1.0724117295032913,-9.20885697187313,-3.222022740873728,4114.285714285714,1950.9157509157508,1.0,6.169672371762964,162.08316094331818,-4.427480916030534,-6.259541984732824,-3.8167938931297707,-0.2773613193403298,0.26686656671664166,-0.3568215892053973,1304.7619047619046,96.9560655340864,32.92826004030648,
1770995742432.632,1.1521739130434783,-5.815217391304348,-0.6956521739130435,-1.141831238779174,-9.2327947336924,-3.286654697785757,4090.8424908424904,1924.5421245421244,1.0,6.169672371762964,162.08316094331818,-4.809160305343512,-7.038167938931298,-4.030534351145038,-0.2773613193403298,0.24137931034482757,-0.3493253373313343,1290.8424908424909,96.9560655340864,32.92826004030648,
1770995742452.167,1.108695652173913,-5.804347826086956,-0.6521739130434783,-1.187312986235787,-9.206463195691203,-3.286654697785757,4115.750915750916,1954.5787545787543,1.0,6.174777603349032,161.9491525423729,-5.236641221374046,-8.67175572519084,-4.488549618320611,-0.280359820089955,0.239880059970015,-0.3568215892053973,1297.4358974358975,96.95321097311052,32.92826004030648,
1770995742471.702,1.1195652173913042,-5.771739130434782,-0.6195652173913043,-1.187312986235787,-9.165769000598443,-3.226810293237582,4114.285714285714,1957.5091575091574,1.0,6.174777603349032,161.9491525423729,-5.374045801526718,-9.358778625954198,-3.969465648854962,-0.2818590704647676,0.24137931034482757,-0.35082458770614694,1306.9597069597069,96.9560655340864,32.92826004030648,
1770995742491.2368,1.1521739130434783,-5.75,-0.5978260869565217,-1.1274685816876122,-9.163375224416518,-3.190903650508677,4106.959706959707,1956.0439560439559,1.0,6.174777603349032,161.9491525423729,-5.49618320610687,-8.99236641221374,-3.3435114503816794,-0.2833583208395802,0.25487256371814093,-0.36281859070464767,1324.5421245421244,96.9560655340864,32.92826004030648,
1770995742510.7715,1.184782608695652,-5.75,-0.6195652173913043,-1.1131059245960502,-9.134649910233392,-3.2244165170556554,4114.285714285714,1958.2417582417581,1.0,6.174777603349032,161.9491525423729,-5.511450381679389,-7.480916030534351,-2.946564885496183,-0.280359820089955,0.24737631184407796,-0.34782608695652173,1346.5201465201465,96.95321097311052,32.92826004030648,
1770995742530.3066,1.1630434782608696,-5.793478260869565,-0.6304347826086957,-1.1298623578695393,-9.141831238779174,-3.2244165170556554,4114.285714285714,1958.2417582417581,1.0,6.174777603349032,161.9491525423729,-4.809160305343512,-6.809160305343511,-3.312977099236641,-0.2788605697151424,0.2518740629685157,-0.3493253373313343,1354.5787545787546,96.95035641494638,32.92826004030648,
1770995742549.8416,1.184782608695652,-5.793478260869565,-0.6304347826086957,-1.1274685816876122,-9.180131657690005,-3.2315978456014363,4093.7728937728934,1933.3333333333333,1.0,6.174777603349032,161.9491525423729,-4.8396946564885495,-6.106870229007633,-3.9541984732824424,-0.2848575712143928,0.2593703148425787,-0.36281859070464767,1340.6593406593406,96.93893821040722,32.92826004030648,
1770995742569.3762,1.1630434782608696,-5.83695652173913,-0.6956521739130435,-1.1011370436864152,-9.22561340514662,-3.269898264512268,4114.285714285714,1951.6483516483515,1.0,6.174777603349032,161.9491525423729,-4.564885496183206,-5.175572519083969,-3.9389312977099236,-0.2818590704647676,0.24887556221889054,-0.3568215892053973,1320.8791208791208,96.95321097311052,32.92826004030648,
1770995742588.9111,1.141304347826087,-5.815217391304348,-0.6956521739130435,-1.1466187911430281,-9.235188509874327,-3.2986235786953917,4089.377289377289,1929.6703296703295,1.0,6.174777603349032,161.9491525423729,-4.427480916030534,-4.702290076335878,-3.847328244274809,-0.280359820089955,0.27586206896551724,-0.3703148425787106,1301.098901098901,96.94750185959397,32.92826004030648,
1770995742608.446,1.1630434782608696,-5.815217391304348,-0.6956521739130435,-1.144225014961101,-9.18491921005386,-3.291442250149611,4086.4468864468863,1916.4835164835163,1.0,6.174777603349032,161.9491525423729,-4.122137404580153,-4.1679389312977095,-3.6488549618320607,-0.27586206896551724,0.2773613193403298,-0.3703148425787106,1279.8534798534797,96.95321097311052,32.92826004030648,
1770995742627.981,1.1956521739130435,-5.771739130434782,-0.6956521739130435,-1.0963494913225613,-9.20885697187313,-3.3345302214242967,4112.820512820513,1951.6483516483515,1.0,6.1798828349351,161.81536555142503,-4.061068702290076,-4.076335877862595,-3.633587786259542,-0.2833583208395802,0.2608695652173913,-0.3658170914542728,1264.4688644688645,96.95321097311052,32.92826004030648,
1770995742647.516,1.1956521739130435,-5.804347826086956,-0.6956521739130435,-1.1178934769599043,-9.194494314781569,-3.293836026331538,4105.494505494506,1947.9853479853477,1.0,6.174777603349032,161.9491525423729,-3.679389312977099,-3.4045801526717554,-3.6946564885496183,-0.2773613193403298,0.24737631184407796,-0.3733133433283358,1265.9340659340658,96.94464730705332,32.92826004030648,
1770995742667.0508,1.2173913043478262,-5.804347826086956,-0.7065217391304348,-1.0532615200478754,-9.189706762417714,-3.3225613405146617,4114.285714285714,1956.0439560439559,1.0,6.174777603349032,161.9491525423729,-3.3740458015267176,-2.854961832061069,-3.5572519083969465,-0.2788605697151424,0.25487256371814093,-0.3658170914542728,1268.8644688644688,96.95892009787404,32.92826004030648,
1770995742686.5854,1.184782608695652,-5.793478260869565,-0.717391304347826,-1.0771992818671454,-9.211250748055056,-3.3273488928785158,4114.285714285714,1958.2417582417581,1.0,6.174777603349032,161.9491525423729,-3.129770992366412,-2.351145038167939,-3.297709923664122,-0.2818590704647676,0.25037481259370314,-0.36881559220389803,1281.3186813186812,96.9560655340864,32.92826004030648,
1770995742706.1204,1.184782608695652,-5.793478260869565,-0.7065217391304348,-1.1107121484141234,-9.175344105326152,-3.3034111310592458,4112.820512820513,1963.3699633699632,1.0,6.1798828349351,161.81536555142503,-2.900763358778626,-1.9389312977099236,-3.5572519083969465,-0.280359820089955,0.24737631184407796,-0.3568215892053973,1305.4945054945053,96.94750185959397,32.92826004030648,
1770995742725.6553,1.1956521739130435,-5.793478260869565,-0.7282608695652174,-1.1059245960502693,-9.204069419509276,-3.305804907241173,4109.89010989011,1958.2417582417581,1.0,6.174777603349032,161.9491525423729,-2.7022900763358777,-1.129770992366412,-3.145038167938931,-0.2788605697151424,0.27136431784107945,-0.3658170914542728,1325.2747252747251,96.95321097311052,32.92826004030648,
1770995742745.1902,1.1630434782608696,-5.75,-0.7717391304347826,-1.1059245960502693,-9.132256134051467,-3.3512866546977857,4089.377289377289,1931.8681318681317,1.0,6.174777603349032,161.9491525423729,-2.4732824427480917,0.1984732824427481,-2.6564885496183206,-0.2908545727136432,0.27136431784107945,-0.36881559220389803,1330.4029304029302,96.95892009787404,32.92826004030648,
1770995742764.725,1.0978260869565217,-5.728260869565217,-0.75,-1.18491921005386,-9.105924596050269,-3.3776181926989826,4114.285714285714,1951.6483516483515,1.0,6.174777603349032,161.9491525423729,-2.7938931297709924,-0.015267175572519083,-2.6564885496183206,-0.2863568215892054,0.239880059970015,-0.35982008995502246,1328.937728937729,96.9560655340864,32.92826004030648,
1770995742784.26,1.108695652173913,-5.782608695652174,-0.717391304347826,-1.177737881508079,-9.158587672052663,-3.320167564332735,4114.285714285714,1956.0439560439559,1.0,6.174777603349032,161.9491525423729,-2.519083969465649,-0.0916030534351145,-2.396946564885496,-0.280359820089955,0.24887556221889054,-0.36431784107946025,1321.6117216117216,96.95892009787404,32.92826004030648,
1770995742803.795,1.141304347826087,-5.804347826086956,-0.75,-1.16098144823459,-9.18491921005386,-3.3512866546977857,4106.959706959707,1955.311355311355,1.0,6.174777603349032,161.9491525423729,-2.564885496183206,2.0610687022900764,-1.7862595419847327,-0.2863568215892054,0.24737631184407796,-0.3568215892053973,1305.4945054945053,96.95321097311052,32.92826004030648,
1770995742823.3296,1.0217391304347825,-5.739130434782608,-0.8043478260869565,-1.2806702573309394,-9.153800119688809,-3.4087372830640335,4114.285714285714,1957.5091575091574,1.0,6.174777603349032,161.9491525423729,-2.4122137404580153,4.061068702290076,-0.8549618320610687,-0.2848575712143928,0.2563718140929535,-0.35982008995502246,1284.9816849816848,96.95321097311052,32.92826004030648,
1770995742842.8645,1.0434782608695652,-5.684782608695652,-0.75,-1.2806702573309394,-9.077199281867145,-3.3608617594254935,4114.285714285714,1958.974358974359,1.0,6.174777603349032,161.9491525423729,-2.33587786259542,3.969465648854962,-1.1603053435114503,-0.2893553223388306,0.2578710644677661,-0.3658170914542728,1276.1904761904761,96.95321097311052,32.92826004030648,
1770995742862.3994,1.184782608695652,-5.695652173913043,-0.6630434782608695,-1.1394374625972472,-9.053261520047876,-3.28426092160383,4112.820512820513,1964.102564102564,1.0,6.174777603349032,161.9491525423729,-2.8854961832061066,4.473282442748092,-1.2213740458015268,-0.2773613193403298,0.24887556221889054,-0.35532233883058467,1278.3882783882782,96.9560655340864,32.92826004030648,
1770995742881.9343,1.2608695652173914,-5.717391304347826,-0.6630434782608695,-1.0700179533213645,-9.103530819868341,-3.250748055056852,4114.285714285714,1960.4395604395604,1.0,6.174777603349032,161.9491525423729,-3.0229007633587783,6.442748091603053,0.21374045801526717,-0.2833583208395802,0.24587706146926536,-0.36881559220389803,1273.9926739926739,96.95892009787404,32.92826004030648,
1770995742901.4692,1.1521739130434783,-5.771739130434782,-0.6847826086956521,-1.165769000598444,-9.153800119688809,-3.286654697785757,4090.8424908424904,1927.4725274725274,1.0,6.174777603349032,161.9491525423729,-2.854961832061069,6.6106870229007635,0.16793893129770993,-0.280359820089955,0.24137931034482757,-0.36281859070464767,1276.1904761904761,96.95035641494638,32.92826004030648,
1770995742921.0042,1.1195652173913042,-5.83695652173913,-0.6739130434782609,-1.175344105326152,-9.230400957510472,-3.274685816876122,4114.285714285714,1949.4505494505493,1.0,6.174777603349032,161.9491525423729,-2.6259541984732824,6.351145038167939,-0.21374045801526717,-0.280359820089955,0.24137931034482757,-0.35532233883058467,1309.89010989011,96.95035641494638,32.92826004030648,
1770995742940.5388,1.1630434782608696,-5.858695652173913,-0.6739130434782609,-1.1298623578695393,-9.254338719329743,-3.289048473967684,4114.285714285714,1956.0439560439559,1.0,6.174777603349032,161.9491525423729,-3.0076335877862594,6.717557251908397,-0.15267175572519084,-0.2818590704647676,0.2383808095952024,-0.35082458770614694,1382.4175824175823,96.9560655340864,32.92826004030648,
1770995742960.0735,1.1195652173913042,-5.923913043478261,-0.6739130434782609,-1.165769000598444,-9.295032914422501,-3.291442250149611,4108.424908424908,1942.8571428571427,1.0,6.174777603349032,161.9491525423729,-3.541984732824427,7.740458015267175,0.4580152671755725,-0.27436281859070466,0.2338830584707646,-0.34632683658170915,1472.5274725274724,96.9560655340864,32.92826004030648,
1770995742979.6086,1.108695652173913,-5.923913043478261,-0.7065217391304348,-1.189706762417714,-9.347695990424896,-3.2986235786953917,4114.285714285714,1954.5787545787543,1.0,6.174777603349032,161.9491525423729,-3.5725190839694654,8.65648854961832,1.099236641221374,-0.2773613193403298,0.2593703148425787,-0.3778110944527736,1564.102564102564,96.95892009787404,32.92826004030648,
1770995742999.1436,1.184782608695652,-5.771739130434782,-0.6521739130434783,-1.144225014961101,-9.244763614602034,-3.312986235786954,4114.285714285714,1957.5091575091574,1.0,6.174777603349032,161.9491525423729,-4.198473282442748,8.900763358778626,0.9465648854961831,-0.2773613193403298,0.2518740629685157,-0.35982008995502246,1631.5018315018315,96.95321097311052,32.92826004030648,
1770995743018.6785,1.2826086956521738,-5.717391304347826,-0.5869565217391304,-1.0460801915020945,-9.103530819868341,-3.2076600837821663,4114.285714285714,1958.974358974359,1.0,6.174777603349032,161.9491525423729,-4.0,8.16793893129771,0.9465648854961831,-0.2833583208395802,0.24887556221889054,-0.3538230884557721,1646.153846153846,96.9560655340864,32.92826004030648,
1770995743038.2134,1.3478260869565217,-5.728260869565217,-0.5760869565217391,-0.9646918013165768,-9.101137043686416,-3.1382405745062836,4109.89010989011,1956.7765567765566,1.0,6.174777603349032,161.9491525423729,-4.122137404580153,7.98473282442748,1.2366412213740459,-0.280359820089955,0.2518740629685157,-0.35532233883058467,1610.989010989011,96.95321097311052,32.92826004030648,
1770995743057.748,1.2608695652173914,-5.782608695652174,-0.5978260869565217,-0.9766606822262118,-9.146618791143029,-3.1669658886894076,4090.8424908424904,1926.7399267399267,1.0,6.174777603349032,161.9491525423729,-3.2061068702290076,8.687022900763358,1.5267175572519083,-0.280359820089955,0.24287856071964017,-0.35982008995502246,1547.2527472527472,96.95083280791533,32.91318473914289,
1770995743077.283,1.1521739130434783,-5.782608695652174,-0.6304347826086957,-1.0963494913225613,-9.213644524236983,-3.2196289646918013,4087.912087912088,1916.4835164835163,1.0,6.174777603349032,161.9491525423729,-2.610687022900763,8.580152671755725,0.6259541984732824,-0.2863568215892054,0.24437781109445278,-0.35082458770614694,1469.5970695970695,96.95083280791533,32.91318473914289,
1770995743096.818,1.1739130434782608,-5.869565217391304,-0.6304347826086957,-1.1178934769599043,-9.254338719329743,-3.245960502692998,4115.750915750916,1953.113553113553,1.0,6.174777603349032,161.9491525423729,-2.931297709923664,8.076335877862595,0.7022900763358778,-0.27586206896551724,0.239880059970015,-0.35082458770614694,1407.3260073260071,96.95083280791533,32.91318473914289,
1770995743116.3528,1.1195652173913042,-5.913043478260869,-0.6521739130434783,-1.1466187911430281,-9.32854578096948,-3.2555356074207062,4108.424908424908,1947.9853479853477,1.0,6.174777603349032,161.9491525423729,-3.2213740458015265,8.366412213740457,1.3587786259541985,-0.2863568215892054,0.25337331334332835,-0.35982008995502246,1367.032967032967,96.95083280791533,32.91318473914289,
1770995743135.8877,1.1304347826086956,-5.913043478260869,-0.7065217391304348,-1.189706762417714,-9.33572710951526,-3.320167564332735,4115.750915750916,1961.172161172161,1.0,6.174777603349032,161.9491525423729,-3.2519083969465647,9.404580152671755,1.3893129770992365,-0.2833583208395802,0.24887556221889054,-0.35082458770614694,1348.7179487179487,96.95368729945483,32.91318473914289,
1770995743155.4226,1.1739130434782608,-5.815217391304348,-0.7065217391304348,-1.144225014961101,-9.254338719329743,-3.317773788150808,4114.285714285714,1959.7069597069597,1.0,6.174777603349032,161.9491525423729,-2.7938931297709924,10.106870229007633,1.7404580152671756,-0.2893553223388306,0.2518740629685157,-0.35532233883058467,1359.7069597069597,96.95083280791533,32.91318473914289,
1770995743174.9573,1.2173913043478262,-5.771739130434782,-0.7065217391304348,-1.1154997007779772,-9.175344105326152,-3.317773788150808,4114.285714285714,1958.974358974359,1.0,6.174777603349032,161.9491525423729,-2.763358778625954,11.16030534351145,1.465648854961832,-0.2773613193403298,0.24737631184407796,-0.34332833583208394,1383.8827838827838,96.95368729945483,32.91318473914289,
1770995743194.4922,1.2173913043478262,-5.793478260869565,-0.6304347826086957,-1.0843806104129263,-9.165769000598443,-3.265110712148414,4114.285714285714,1958.974358974359,1.0,6.174777603349032,161.9491525423729,-2.610687022900763,11.786259541984732,1.3435114503816794,-0.2788605697151424,0.24287856071964017,-0.3448275862068965,1403.6630036630036,96.95083280791533,32.91318473914289,
1770995743214.027,1.2391304347826086,-5.83695652173913,-0.6630434782608695,-1.0604428485936566,-9.223219628964692,-3.2172351885098744,4090.8424908424904,1926.7399267399267,1.0,6.174777603349032,161.9491525423729,-2.946564885496183,12.793893129770991,1.3129770992366412,-0.2773613193403298,0.24437781109445278,-0.34182908545727136,1405.8608058608058,96.95083280791533,32.91318473914289,
1770995743233.562,1.2608695652173914,-5.8478260869565215,-0.6086956521739131,-1.0412926391382404,-9.261520047875523,-3.229204069419509,4086.4468864468863,1916.4835164835163,1.0,6.174777603349032,161.9491525423729,-2.564885496183206,12.977099236641221,1.4045801526717556,-0.2788605697151424,0.24287856071964017,-0.34332833583208394,1395.6043956043954,96.95368729945483,32.91318473914289,
1770995743253.097,1.2608695652173914,-5.804347826086956,-0.5652173913043478,-1.0317175344105325,-9.20885697187313,-3.1885098743267504,4114.285714285714,1946.5201465201465,1.0,6.174777603349032,161.9491525423729,-2.259541984732824,12.885496183206106,1.5572519083969465,-0.2818590704647676,0.24287856071964017,-0.3538230884557721,1384.6153846153845,96.94512383327113,32.91318473914289,
1770995743272.6318,1.3043478260869565,-5.826086956521739,-0.5434782608695652,-0.9910233393177738,-9.206463195691203,-3.1526032315978454,4105.494505494506,1946.5201465201465,1.0,6.174777603349032,161.9491525423729,-2.519083969465649,12.213740458015266,1.4809160305343512,-0.2773613193403298,0.2518740629685157,-0.34782608695652173,1376.5567765567764,96.95368729945483,32.91318473914289,
1770995743292.1667,1.326086956521739,-5.83695652173913,-0.5217391304347826,-0.9742669060442848,-9.237582286056254,-3.1190903650508677,4084.981684981685,1915.018315018315,1.0,6.169672371762964,162.08316094331818,-2.3053435114503817,12.335877862595419,1.5877862595419847,-0.26836581709145424,0.25487256371814093,-0.3373313343328336,1374.3589743589744,96.95083280791533,32.91318473914289,
1770995743311.7014,1.25,-5.869565217391304,-0.5543478260869565,-0.9862357869539198,-9.244763614602034,-3.1334530221424295,4114.285714285714,1946.5201465201465,1.0,6.174777603349032,161.9491525423729,-2.1526717557251906,12.381679389312977,1.6030534351145038,-0.2818590704647676,0.24887556221889054,-0.3493253373313343,1367.7655677655678,96.94797831918741,32.91318473914289,
1770995743331.2363,1.2608695652173914,-5.869565217391304,-0.5760869565217391,-1.0388988629563136,-9.26391382405745,-3.1669658886894076,4114.285714285714,1954.5787545787543,1.0,6.174777603349032,161.9491525423729,-2.045801526717557,12.381679389312977,0.9618320610687022,-0.2818590704647676,0.25037481259370314,-0.3328335832083958,1361.904761904762,96.95368729945483,32.91318473914289,
1770995743350.7712,1.2608695652173914,-5.858695652173913,-0.5434782608695652,-1.0388988629563136,-9.251944943147816,-3.128665469778576,4112.820512820513,1962.6373626373625,1.0,6.169672371762964,162.08316094331818,-2.3206106870229006,10.946564885496183,0.549618320610687,-0.280359820089955,0.24137931034482757,-0.3568215892053973,1358.974358974359,96.95368729945483,32.91318473914289,
1770995743370.3062,1.2608695652173914,-5.804347826086956,-0.5434782608695652,-1.0317175344105325,-9.230400957510472,-3.1358467983243568,4089.377289377289,1932.6007326007325,1.0,6.169672371762964,162.08316094331818,-2.2900763358778624,10.122137404580153,0.8091603053435115,-0.280359820089955,0.24287856071964017,-0.34332833583208394,1356.0439560439559,96.95083280791533,32.91318473914289,
1770995743389.841,1.2826086956521738,-5.858695652173913,-0.5760869565217391,-1.0197486535008977,-9.230400957510472,-3.128665469778576,4086.4468864468863,1917.216117216117,1.0,6.169672371762964,162.08316094331818,-2.4580152671755724,9.48091603053435,0.8549618320610687,-0.2833583208395802,0.2353823088455772,-0.3493253373313343,1353.8461538461538,96.94797831918741,32.91318473914289,
1770995743409.376,1.2608695652173914,-5.83695652173913,-0.5652173913043478,-1.0317175344105325,-9.261520047875523,-3.1645721125074804,4114.285714285714,1947.2527472527472,1.0,6.169672371762964,162.08316094331818,-2.5343511450381677,9.34351145038168,1.0687022900763359,-0.280359820089955,0.2383808095952024,-0.34332833583208394,1358.2417582417581,96.95368729945483,32.91318473914289,
1770995743428.9106,1.2391304347826086,-5.83695652173913,-0.5869565217391304,-1.0604428485936566,-9.254338719329743,-3.1645721125074804,4106.959706959707,1953.113553113553,1.0,6.169672371762964,162.08316094331818,-2.778625954198473,9.282442748091603,0.2900763358778626,-0.2788605697151424,0.2563718140929535,-0.34632683658170915,1368.4981684981683,96.95368729945483,32.91318473914289,
1770995743448.4456,1.2173913043478262,-5.858695652173913,-0.5760869565217391,-1.0748055056852184,-9.228007181328545,-3.1741472172351886,4086.4468864468863,1923.0769230769229,1.0,6.169672371762964,162.08316094331818,-3.3587786259541983,8.305343511450381,0.42748091603053434,-0.2788605697151424,0.2518740629685157,-0.3403298350824588,1368.4981684981683,96.94512383327113,32.91318473914289,
1770995743467.9805,1.2717391304347825,-5.880434782608695,-0.5108695652173912,-1.0341113105924595,-9.295032914422501,-3.1214841412327945,4114.285714285714,1948.7179487179485,1.0,6.169672371762964,162.08316094331818,-3.5114503816793894,6.854961832061068,0.47328244274809156,-0.27436281859070466,0.2518740629685157,-0.33883058470764615,1366.3003663003662,96.95083280791533,32.91318473914289,
1770995743487.5154,1.2826086956521738,-5.869565217391304,-0.5434782608695652,-1.0197486535008977,-9.283064033512867,-3.1238779174147218,4112.820512820513,1961.172161172161,1.0,6.169672371762964,162.08316094331818,-3.2519083969465647,6.824427480916031,0.8244274809160305,-0.27586206896551724,0.24737631184407796,-0.34182908545727136,1364.8351648351647,96.95083280791533,32.91318473914289,
1770995743507.0503,1.2934782608695652,-5.83695652173913,-0.5652173913043478,-0.9982046678635548,-9.266307600239378,-3.128665469778576,4114.285714285714,1958.974358974359,1.0,6.169672371762964,162.08316094331818,-3.2213740458015265,6.931297709923664,0.6259541984732824,-0.27436281859070466,0.24137931034482757,-0.3373313343328336,1361.904761904762,96.95654179380597,32.91318473914289,
1770995743526.5852,1.2826086956521738,-5.815217391304348,-0.5760869565217391,-1.0245362058647516,-9.21603830041891,-3.1693596648713345,4090.8424908424904,1926.7399267399267,1.0,6.169672371762964,162.08316094331818,-2.900763358778626,6.99236641221374,0.9312977099236641,-0.272863568215892,0.24737631184407796,-0.3313343328335832,1367.7655677655678,96.95368729945483,32.91318473914289,
1770995743546.12,1.2826086956521738,-5.826086956521739,-0.5217391304347826,-1.0293237582286057,-9.228007181328545,-3.1454219030520645,4114.285714285714,1949.4505494505493,1.0,6.164567140176896,162.21739130434784,-3.465648854961832,5.419847328244274,0.6412213740458015,-0.27586206896551724,0.24137931034482757,-0.33883058470764615,1364.8351648351647,96.95083280791533,32.91318473914289,
1770995743565.6548,1.3478260869565217,-5.826086956521739,-0.5,-0.9838420107719928,-9.211250748055056,-3.0903650508677436,4114.285714285714,1956.0439560439559,1.0,6.169672371762964,162.08316094331818,-3.66412213740458,4.458015267175572,0.549618320610687,-0.2788605697151424,0.24737631184407796,-0.3328335832083958,1362.6373626373625,96.95654179380597,32.91318473914289,
1770995743585.1897,1.3478260869565217,-5.8478260869565215,-0.46739130434782605,-0.940754039497307,-9.211250748055056,-3.052064631956912,4106.959706959707,1955.311355311355,1.0,6.164567140176896,162.21739130434784,-3.6946564885496183,4.473282442748092,-0.07633587786259542,-0.27136431784107945,0.25487256371814093,-0.3493253373313343,1370.6959706959706,96.95654179380597,32.91318473914289,
1770995743604.7246,1.2717391304347825,-5.880434782608695,-0.4891304347826087,-1.0125673249551166,-9.25673249551167,-3.076002393776182,4086.4468864468863,1923.8095238095236,1.0,6.164567140176896,162.21739130434784,-3.7709923664122136,4.625954198473282,-0.16793893129770993,-0.2788605697151424,0.2518740629685157,-0.3373313343328336,1381.6849816849815,96.94797831918741,32.91318473914289,
1770995743624.2595,1.2391304347826086,-5.858695652173913,-0.5108695652173912,-1.0580490724117295,-9.307001795332136,-3.087971274685817,4114.285714285714,1948.7179487179485,1.0,6.164567140176896,162.21739130434784,-3.5114503816793894,4.65648854961832,-0.549618320610687,-0.2773613193403298,0.25487256371814093,-0.3448275862068965,1414.6520146520145,96.95368729945483,32.91318473914289,
1770995743643.7944,1.2173913043478262,-5.858695652173913,-0.5217391304347826,-1.0748055056852184,-9.261520047875523,-3.1238779174147218,4114.285714285714,1956.0439560439559,1.0,6.169672371762964,162.08316094331818,-3.6488549618320607,4.473282442748092,-1.0534351145038168,-0.27436281859070466,0.2638680659670165,-0.34632683658170915,1472.5274725274724,96.95083280791533,32.91318473914289,
1770995743663.329,1.25,-5.869565217391304,-0.5434782608695652,-1.0748055056852184,-9.26391382405745,-3.0999401555954518,4106.959706959707,1955.311355311355,1.0,6.164567140176896,162.21739130434784,-3.969465648854962,3.9236641221374042,-0.2595419847328244,-0.280359820089955,0.2368815592203898,-0.3313343328335832,1532.6007326007325,96.95083280791533,32.91318473914289,
1770995743682.864,1.2608695652173914,-5.880434782608695,-0.5434782608695652,-1.0508677438659486,-9.297426690604429,-3.1095152603231595,4089.377289377289,1931.135531135531,1.0,6.164567140176896,162.21739130434784,-4.67175572519084,3.7862595419847325,-0.2595419847328244,-0.280359820089955,0.2653673163418291,-0.33433283358320837,1579.4871794871794,96.94797831918741,32.91318473914289,
1770995743702.399,1.2608695652173914,-5.826086956521739,-0.5,-1.0197486535008977,-9.259126271693596,-3.1023339317773786,4087.912087912088,1917.9487179487178,1.0,6.164567140176896,162.21739130434784,-4.549618320610687,2.6717557251908395,-0.7480916030534351,-0.27436281859070466,0.24587706146926536,-0.33883058470764615,1610.2564102564102,96.94512383327113,32.91318473914289,
1770995743721.9338,1.3695652173913042,-5.8478260869565215,-0.4782608695652174,-0.931178934769599,-9.254338719329743,-3.066427289048474,4114.285714285714,1947.2527472527472,1.0,6.164567140176896,162.21739130434784,-4.519083969465648,2.1068702290076335,-1.2213740458015268,-0.2788605697151424,0.24437781109445278,-0.3313343328335832,1602.197802197802,96.95083280791533,32.91318473914289,
1770995743741.4688,1.3478260869565217,-5.880434782608695,-0.5434782608695652,-0.9503291442250149,-9.28785158587672,-3.1310592459605027,4105.494505494506,1946.5201465201465,1.0,6.164567140176896,162.21739130434784,-4.549618320610687,2.6412213740458013,-1.3893129770992365,-0.272863568215892,0.2563718140929535,-0.3403298350824588,1552.3809523809523,96.94226935016643,32.91318473914289,
1770995743761.0037,1.2826086956521738,-5.869565217391304,-0.5652173913043478,-1.0005984440454818,-9.297426690604429,-3.1669658886894076,4114.285714285714,1955.311355311355,1.0,6.164567140176896,162.21739130434784,-3.9389312977099236,2.4122137404580153,-1.3282442748091603,-0.27436281859070466,0.2578710644677661,-0.3298350824587706,1484.9816849816848,96.95083280791533,32.91318473914289,
1770995743780.5386,1.3478260869565217,-5.858695652173913,-0.5434782608695652,-0.9622980251346499,-9.28785158587672,-3.1406343506882104,4114.285714285714,1957.5091575091574,1.0,6.164567140176896,162.21739130434784,-3.5725190839694654,1.1908396946564885,-1.6946564885496183,-0.2818590704647676,0.24887556221889054,-0.34632683658170915,1411.7216117216117,96.95083280791533,32.91318473914289,
1770995743800.0732,1.3369565217391304,-5.83695652173913,-0.5543478260869565,-0.933572710951526,-9.22561340514662,-3.1478156792339917,4112.820512820513,1963.3699633699632,1.0,6.164567140176896,162.21739130434784,-3.801526717557252,1.297709923664122,-2.030534351145038,-0.2818590704647676,0.26686656671664166,-0.34332833583208394,1366.3003663003662,96.94512383327113,32.91318473914289,
1770995743819.6082,1.2717391304347825,-5.815217391304348,-0.5652173913043478,-0.9862357869539198,-9.220825852782765,-3.1502094554159186,4115.750915750916,1965.5677655677655,1.0,6.164567140176896,162.21739130434784,-3.847328244274809,1.3893129770992365,-1.3893129770992365,-0.2788605697151424,0.2383808095952024,-0.3328335832083958,1344.3223443223442,96.95083280791533,32.91318473914289,
1770995743839.143,1.2608695652173914,-5.83695652173913,-0.5434782608695652,-1.0245362058647516,-9.2327947336924,-3.1621783363255536,4087.912087912088,1928.2051282051282,1.0,6.164567140176896,162.21739130434784,-3.801526717557252,0.7633587786259541,-1.9389312977099236,-0.2773613193403298,0.2383808095952024,-0.3328335832083958,1335.5311355311355,96.94512383327113,32.91318473914289,
1770995743858.678,1.2282608695652173,-5.83695652173913,-0.5217391304347826,-1.0077797725912627,-9.237582286056254,-3.1430281268701377,4112.820512820513,1954.5787545787543,1.0,6.164567140176896,162.21739130434784,-3.9541984732824424,0.7480916030534351,-1.8473282442748091,-0.26686656671664166,0.25487256371814093,-0.335832083958021,1342.8571428571427,96.95083280791533,32.91318473914289,
1770995743878.213,1.2282608695652173,-5.869565217391304,-0.532608695652174,-1.0604428485936566,-9.251944943147816,-3.1214841412327945,4112.820512820513,1962.6373626373625,1.0,6.164567140176896,162.21739130434784,-4.229007633587786,0.564885496183206,-1.8015267175572518,-0.280359820089955,0.25037481259370314,-0.335832083958021,1360.4395604395604,96.95654179380597,32.91318473914289,
1770995743897.7478,1.2282608695652173,-5.869565217391304,-0.5217391304347826,-1.0580490724117295,-9.299820466786356,-3.1214841412327945,4104.029304029304,1950.18315018315,1.0,6.164567140176896,162.21739130434784,-4.137404580152672,0.21374045801526717,-1.8015267175572518,-0.27586206896551724,0.25337331334332835,-0.3403298350824588,1380.952380952381,96.95368729945483,32.91318473914289,
1770995743917.2827,1.25,-5.858695652173913,-0.5217391304347826,-1.0484739676840216,-9.275882704967085,-3.116696588868941,4112.820512820513,1961.9047619047617,1.0,6.164567140176896,162.21739130434784,-4.534351145038168,-0.7786259541984732,-1.618320610687023,-0.280359820089955,0.25037481259370314,-0.32533733133433285,1395.6043956043954,96.95083280791533,32.91318473914289,
1770995743936.8174,1.2717391304347825,-5.83695652173913,-0.5543478260869565,-1.0125673249551166,-9.239976062238181,-3.1023339317773786,4114.285714285714,1959.7069597069597,1.0,6.164567140176896,162.21739130434784,-4.65648854961832,-0.38167938931297707,-1.618320610687023,-0.280359820089955,0.24437781109445278,-0.335832083958021,1405.128205128205,96.95368729945483,32.91318473914289,
1770995743956.3523,1.326086956521739,-5.804347826086956,-0.5434782608695652,-0.9814482345900658,-9.211250748055056,-3.1382405745062836,4108.424908424908,1951.6483516483515,1.0,6.164567140176896,162.21739130434784,-4.778625954198473,-0.3969465648854962,-1.7709923664122136,-0.2818590704647676,0.2368815592203898,-0.335832083958021,1408.7912087912086,96.95368729945483,32.91318473914289,
1770995743975.8872,1.2934782608695652,-5.83695652173913,-0.5760869565217391,-0.9646918013165768,-9.211250748055056,-3.1861160981448235,4105.494505494506,1954.5787545787543,1.0,6.164567140176896,162.21739130434784,-4.381679389312977,-0.2748091603053435,-1.816793893129771,-0.2638680659670165,0.26686656671664166,-0.335832083958021,1399.2673992673992,96.95083280791533,32.91318473914289,
1770995743995.422,1.2717391304347825,-5.8478260869565215,-0.6086956521739131,-1.0029922202274086,-9.230400957510472,-3.1861160981448235,4087.912087912088,1924.5421245421244,1.0,6.164567140176896,162.21739130434784,-4.595419847328244,-0.5343511450381679,-2.381679389312977,-0.2818590704647676,0.25487256371814093,-0.34182908545727136,1375.8241758241757,96.95368729945483,32.91318473914289,
1770995744014.957,1.2826086956521738,-5.858695652173913,-0.5760869565217391,-1.0005984440454818,-9.273488928785158,-3.1861160981448235,4087.912087912088,1915.7509157509155,1.0,6.164567140176896,162.21739130434784,-4.809160305343512,-1.0381679389312977,-2.549618320610687,-0.2818590704647676,0.24287856071964017,-0.3373313343328336,1350.18315018315,96.95083280791533,32.91318473914289,
1770995744034.492,1.2608695652173914,-5.83695652173913,-0.5652173913043478,-1.0125673249551166,-9.26391382405745,-3.1765409934171154,4114.285714285714,1946.5201465201465,1.0,6.159461908590828,162.35184417737258,-5.435114503816794,-1.2061068702290076,-2.030534351145038,-0.272863568215892,0.24437781109445278,-0.33883058470764615,1328.2051282051282,96.95654179380597,32.91318473914289,
1770995744054.0266,1.2717391304347825,-5.858695652173913,-0.5434782608695652,-1.0388988629563136,-9.249551166965889,-3.1549970077797727,4105.494505494506,1945.7875457875457,1.0,6.164567140176896,162.21739130434784,-5.2824427480916025,-1.2366412213740459,-1.8625954198473282,-0.280359820089955,0.2518740629685157,-0.335832083958021,1308.4249084249084,96.95812732738086,32.923234939627584,
1770995744073.5615,1.3043478260869565,-5.826086956521739,-0.5434782608695652,-0.9910233393177738,-9.22561340514662,-3.1382405745062836,4112.820512820513,1960.4395604395604,1.0,6.164567140176896,162.21739130434784,-4.702290076335878,-1.6335877862595418,-2.015267175572519,-0.272863568215892,0.27136431784107945,-0.33883058470764615,1291.5750915750914,96.96098187083464,32.923234939627584,
1770995744093.0964,1.3043478260869565,-5.815217391304348,-0.5434782608695652,-0.9982046678635548,-9.223219628964692,-3.1382405745062836,4114.285714285714,1958.974358974359,1.0,6.159461908590828,162.35184417737258,-5.251908396946565,-1.9083969465648853,-2.1526717557251906,-0.27136431784107945,0.24737631184407796,-0.33883058470764615,1292.3076923076922,96.9524182489084,32.923234939627584,
1770995744112.631,1.2826086956521738,-5.858695652173913,-0.5760869565217391,-1.0029922202274086,-9.247157390783961,-3.1526032315978454,4109.89010989011,1956.7765567765566,1.0,6.159461908590828,162.35184417737258,-5.251908396946565,-2.091603053435114,-2.0763358778625953,-0.280359820089955,0.25487256371814093,-0.3328335832083958,1317.9487179487178,96.95812732738086,32.923234939627584,
1770995744132.1665,1.2282608695652173,-5.869565217391304,-0.6086956521739131,-1.0532615200478754,-9.261520047875523,-3.1932974266906045,4114.285714285714,1958.2417582417581,1.0,6.159461908590828,162.35184417737258,-5.312977099236641,-2.229007633587786,-2.5343511450381677,-0.2818590704647676,0.2698650674662669,-0.3403298350824588,1339.194139194139,96.95527278673879,32.923234939627584,
1770995744151.7012,1.2391304347826086,-5.913043478260869,-0.6086956521739131,-1.0676241771394375,-9.323758228605625,-3.1980849790544585,4102.5641025641025,1942.8571428571427,1.0,6.159461908590828,162.35184417737258,-5.2824427480916025,-2.3664122137404577,-2.4885496183206106,-0.2698650674662669,0.2368815592203898,-0.3403298350824588,1349.4505494505493,96.95812732738086,32.923234939627584,
1770995744171.2358,1.2391304347826086,-5.8478260869565215,-0.6304347826086957,-1.0484739676840216,-9.278276481149012,-3.1861160981448235,4087.912087912088,1920.8791208791208,1.0,6.164567140176896,162.21739130434784,-5.175572519083969,-2.5343511450381677,-2.33587786259542,-0.27586206896551724,0.24287856071964017,-0.335832083958021,1356.0439560439559,96.95812732738086,32.923234939627584,
1770995744190.7708,1.2717391304347825,-5.815217391304348,-0.5978260869565217,-1.0436864153201675,-9.228007181328545,-3.202872531418312,4114.285714285714,1947.9853479853477,1.0,6.159461908590828,162.35184417737258,-4.977099236641221,-1.3893129770992365,-2.2442748091603053,-0.27436281859070466,0.2518740629685157,-0.3448275862068965,1357.5091575091574,96.95812732738086,32.923234939627584,
1770995744210.3057,1.2391304347826086,-5.793478260869565,-0.6739130434782609,-1.0341113105924595,-9.189706762417714,-3.281867145421903,4105.494505494506,1947.2527472527472,1.0,6.159461908590828,162.35184417737258,-4.7328244274809155,-0.12213740458015267,-1.9694656488549618,-0.280359820089955,0.24887556221889054,-0.34332833583208394,1346.5201465201465,96.95527278673879,32.923234939627584,
1770995744229.8406,1.25,-5.782608695652174,-0.6304347826086957,-1.0508677438659486,-9.180131657690005,-3.289048473967684,4114.285714285714,1955.311355311355,1.0,6.159461908590828,162.35184417737258,-4.7328244274809155,-0.061068702290076333,-1.7251908396946565,-0.2848575712143928,0.2563718140929535,-0.3328335832083958,1334.065934065934,96.95812732738086,32.923234939627584,
1770995744249.3755,1.326086956521739,-5.804347826086956,-0.5434782608695652,-1.0101735487731898,-9.175344105326152,-3.1837223219628963,4114.285714285714,1957.5091575091574,1.0,6.159461908590828,162.35184417737258,-4.900763358778626,-1.7251908396946565,-2.1374045801526718,-0.2773613193403298,0.24437781109445278,-0.3298350824587706,1317.9487179487178,96.9524182489084,32.923234939627584,
1770995744268.9104,1.3695652173913042,-5.83695652173913,-0.5434782608695652,-0.9120287253141831,-9.22561340514662,-3.0999401555954518,4109.89010989011,1956.7765567765566,1.0,6.159461908590828,162.35184417737258,-5.145038167938931,-2.8244274809160306,-2.6412213740458013,-0.27586206896551724,0.26686656671664166,-0.34632683658170915,1305.4945054945053,96.96098187083464,32.923234939627584,
1770995744288.4453,1.2391304347826086,-5.869565217391304,-0.5543478260869565,-0.9599042489527229,-9.271095152603232,-3.1454219030520645,4115.750915750916,1964.8351648351647,1.0,6.159461908590828,162.35184417737258,-5.419847328244274,-2.748091603053435,-2.6717557251908395,-0.2818590704647676,0.23238380809595202,-0.3328335832083958,1317.216117216117,96.95527278673879,32.923234939627584,
1770995744307.98,1.2173913043478262,-5.8478260869565215,-0.5652173913043478,-1.0867743865948534,-9.273488928785158,-3.1430281268701377,4104.029304029304,1950.9157509157508,1.0,6.159461908590828,162.35184417737258,-5.0534351145038165,-3.2519083969465647,-2.5801526717557253,-0.27436281859070466,0.25037481259370314,-0.335832083958021,1364.8351648351647,96.95812732738086,32.923234939627584,
1770995744327.515,1.2826086956521738,-5.8478260869565215,-0.6413043478260869,-1.0293237582286057,-9.259126271693596,-3.2076600837821663,4087.912087912088,1923.0769230769229,1.0,6.159461908590828,162.35184417737258,-4.977099236641221,-3.4198473282442747,-3.2671755725190836,-0.2773613193403298,0.25487256371814093,-0.34782608695652173,1441.7582417582416,96.94670918168272,32.923234939627584,
1770995744347.0498,1.2282608695652173,-5.83695652173913,-0.6086956521739131,-1.0508677438659486,-9.22561340514662,-3.210053859964093,4114.285714285714,1948.7179487179485,1.0,6.159461908590828,162.35184417737258,-5.221374045801526,-2.7938931297709924,-2.7022900763358777,-0.28785607196401797,0.25487256371814093,-0.335832083958021,1528.937728937729,96.95527278673879,32.923234939627584,
1770995744366.5847,1.25,-5.804347826086956,-0.6521739130434783,-1.0412926391382404,-9.239976062238181,-3.2052663076002395,4105.494505494506,1947.2527472527472,1.0,6.159461908590828,162.35184417737258,-5.648854961832061,-2.4427480916030535,-1.66412213740458,-0.2773613193403298,0.2518740629685157,-0.3373313343328336,1591.9413919413919,96.95527278673879,32.923234939627584,
1770995744386.1196,1.2934782608695652,-5.793478260869565,-0.6086956521739131,-1.0053859964093357,-9.196888090963494,-3.226810293237582,4114.285714285714,1955.311355311355,1.0,6.159461908590828,162.35184417737258,-5.755725190839694,-2.763358778625954,-2.6412213740458013,-0.2788605697151424,0.27436281859070466,-0.3448275862068965,1620.5128205128203,96.95812732738086,32.923234939627584,
1770995744405.6543,1.326086956521739,-5.793478260869565,-0.5543478260869565,-0.9622980251346499,-9.194494314781569,-3.1573907839616995,4114.285714285714,1957.5091575091574,1.0,6.159461908590828,162.35184417737258,-5.770992366412213,-3.1755725190839694,-2.8091603053435112,-0.2773613193403298,0.2698650674662669,-0.34332833583208394,1613.9194139194137,96.9524182489084,32.923234939627584,
1770995744425.1892,1.3043478260869565,-5.8478260869565215,-0.5760869565217391,-0.9551166965888689,-9.247157390783961,-3.1526032315978454,4109.89010989011,1956.7765567765566,1.0,6.159461908590828,162.35184417737258,-5.267175572519084,-3.2671755725190836,-3.2061068702290076,-0.2818590704647676,0.26686656671664166,-0.3448275862068965,1569.230769230769,96.9524182489084,32.923234939627584,
1770995744444.724,1.2934782608695652,-5.858695652173913,-0.5760869565217391,-0.9886295631358468,-9.266307600239378,-3.1597845601436263,4114.285714285714,1958.2417582417581,1.0,6.159461908590828,162.35184417737258,-5.679389312977099,-3.465648854961832,-3.3893129770992365,-0.2833583208395802,0.2653673163418291,-0.3373313343328336,1507.6923076923076,96.95527278673879,32.923234939627584,
1770995744464.259,1.315217391304348,-5.858695652173913,-0.5760869565217391,-0.9718731298623579,-9.271095152603232,-3.1406343506882104,4104.029304029304,1948.7179487179485,1.0,6.159461908590828,162.35184417737258,-5.7251908396946565,-4.396946564885496,-3.709923664122137,-0.2773613193403298,0.2578710644677661,-0.33433283358320837,1442.4908424908424,96.94956371388972,32.923234939627584,
1770995744483.794,1.3695652173913042,-5.858695652173913,-0.5760869565217391,-0.931178934769599,-9.249551166965889,-3.1717534410532613,4114.285714285714,1955.311355311355,1.0,6.159461908590828,162.35184417737258,-5.312977099236641,-5.038167938931298,-3.312977099236641,-0.2773613193403298,0.2563718140929535,-0.34332833583208394,1389.7435897435896,96.94670918168272,32.923234939627584,
1770995744503.3289,1.3369565217391304,-5.804347826086956,-0.5869565217391304,-0.947935368043088,-9.220825852782765,-3.210053859964093,4112.820512820513,1962.6373626373625,1.0,6.159461908590828,162.35184417737258,-5.007633587786259,-5.206106870229007,-3.465648854961832,-0.27586206896551724,0.25487256371814093,-0.328335832083958,1361.1721611721612,96.95527278673879,32.923234939627584,
1770995744522.8638,1.315217391304348,-5.815217391304348,-0.6413043478260869,-0.9646918013165768,-9.194494314781569,-3.241172950329144,4104.029304029304,1950.18315018315,1.0,6.159461908590828,162.35184417737258,-5.206106870229007,-5.755725190839694,-3.9083969465648853,-0.2818590704647676,0.26686656671664166,-0.34782608695652173,1353.8461538461538,96.94670918168272,32.923234939627584,
1770995744542.3987,1.326086956521739,-5.793478260869565,-0.6086956521739131,-0.9575104727707959,-9.192100538599641,-3.2315978456014363,4114.285714285714,1956.7765567765566,1.0,6.159461908590828,162.35184417737258,-5.114503816793893,-5.740458015267175,-4.015267175572519,-0.280359820089955,0.24287856071964017,-0.335832083958021,1356.7765567765566,96.95812732738086,32.923234939627584,
1770995744561.933,1.2934782608695652,-5.826086956521739,-0.6086956521739131,-0.9646918013165768,-9.230400957510472,-3.226810293237582,4112.820512820513,1963.3699633699632,1.0,6.159461908590828,162.35184417737258,-5.343511450381679,-5.557251908396946,-3.7862595419847325,-0.2788605697151424,0.24137931034482757,-0.33883058470764615,1369.230769230769,96.9524182489084,32.923234939627584,
1770995744581.4685,1.2826086956521738,-5.8478260869565215,-0.6521739130434783,-1.0101735487731898,-9.254338719329743,-3.2483542788749253,4112.820512820513,1964.8351648351647,1.0,6.159461908590828,162.35184417737258,-5.022900763358779,-5.1603053435114505,-3.5725190839694654,-0.27586206896551724,0.24137931034482757,-0.34182908545727136,1394.139194139194,96.94670918168272,32.923234939627584,
1770995744601.0032,1.2608695652173914,-5.826086956521739,-0.717391304347826,-1.0365050867743866,-9.220825852782765,-3.312986235786954,4114.285714285714,1960.4395604395604,1.0,6.159461908590828,162.35184417737258,-5.022900763358779,-5.374045801526718,-3.801526717557252,-0.2833583208395802,0.2353823088455772,-0.3448275862068965,1405.8608058608058,96.94956371388972,32.923234939627584,
1770995744620.538,1.25,-5.793478260869565,-0.6739130434782609,-1.0293237582286057,-9.187312986235787,-3.281867145421903,4105.494505494506,1950.9157509157508,1.0,6.159461908590828,162.35184417737258,-5.32824427480916,-5.938931297709924,-3.6030534351145036,-0.27586206896551724,0.2368815592203898,-0.3448275862068965,1401.4652014652013,96.95812732738086,32.923234939627584,
1770995744640.073,1.2717391304347825,-5.771739130434782,-0.6956521739130435,-1.0125673249551166,-9.163375224416518,-3.3105924596050267,4086.4468864468863,1922.344322344322,1.0,6.159461908590828,162.35184417737258,-5.007633587786259,-5.877862595419847,-3.49618320610687,-0.2773613193403298,0.25037481259370314,-0.335832083958021,1386.8131868131868,96.9524182489084,32.923234939627584,
1770995744659.608,1.2717391304347825,-5.815217391304348,-0.6847826086956521,-1.0221424296828245,-9.163375224416518,-3.312986235786954,4114.285714285714,1947.9853479853477,1.0,6.159461908590828,162.35184417737258,-5.129770992366412,-4.961832061068702,-3.236641221374046,-0.280359820089955,0.2518740629685157,-0.3373313343328336,1367.032967032967,96.9524182489084,32.923234939627584,
1770995744679.1426,1.2282608695652173,-5.815217391304348,-0.7608695652173912,-1.0460801915020945,-9.228007181328545,-3.3536804308797126,4102.5641025641025,1940.6593406593406,1.0,6.159461908590828,162.35184417737258,-5.709923664122138,-4.687022900763359,-3.297709923664122,-0.2833583208395802,0.25037481259370314,-0.3373313343328336,1339.194139194139,96.94956371388972,32.923234939627584,
1770995744698.6775,1.1956521739130435,-5.804347826086956,-0.75,-1.1011370436864152,-9.22561340514662,-3.3608617594254935,4114.285714285714,1953.8461538461538,1.0,6.159461908590828,162.35184417737258,-5.9541984732824424,-5.419847328244274,-3.5114503816793894,-0.2833583208395802,0.24287856071964017,-0.3403298350824588,1313.5531135531135,96.9524182489084,32.923234939627584,
1770995744718.2124,1.25,-5.793478260869565,-0.6739130434782609,-1.0939557151406343,-9.170556552962298,-3.312986235786954,4114.285714285714,1957.5091575091574,1.0,6.159461908590828,162.35184417737258,-5.969465648854961,-5.450381679389313,-3.679389312977099,-0.27436281859070466,0.24287856071964017,-0.33433283358320837,1307.6923076923076,96.94100012570384,32.923234939627584,
1770995744737.7473,1.326086956521739,-5.826086956521739,-0.6521739130434783,-0.9862357869539198,-9.204069419509276,-3.2555356074207062,4114.285714285714,1958.2417582417581,1.0,6.159461908590828,162.35184417737258,-6.198473282442748,-4.67175572519084,-3.312977099236641,-0.280359820089955,0.239880059970015,-0.3538230884557721,1300.3663003663003,96.9524182489084,32.923234939627584,
1770995744757.2822,1.2608695652173914,-5.815217391304348,-0.6739130434782609,-0.9862357869539198,-9.213644524236983,-3.272292040694195,4114.285714285714,1958.2417582417581,1.0,6.15435667700476,162.4865201161344,-5.816793893129771,-3.83206106870229,-3.1908396946564883,-0.280359820089955,0.25037481259370314,-0.3448275862068965,1306.9597069597069,96.96098187083464,32.923234939627584,
1770995744776.8171,1.2717391304347825,-5.782608695652174,-0.6847826086956521,-1.0365050867743866,-9.196888090963494,-3.301017354877319,4090.8424908424904,1926.7399267399267,1.0,6.159461908590828,162.35184417737258,-5.603053435114504,-4.183206106870228,-3.541984732824427,-0.2833583208395802,0.25037481259370314,-0.3448275862068965,1316.4835164835165,96.95527278673879,32.923234939627584,
1770995744796.3518,1.2826086956521738,-5.760869565217392,-0.6847826086956521,-1.0053859964093357,-9.158587672052663,-3.2986235786953917,4114.285714285714,1949.4505494505493,1.0,6.159461908590828,162.35184417737258,-5.557251908396946,-4.396946564885496,-3.9541984732824424,-0.280359820089955,0.24137931034482757,-0.34182908545727136,1321.6117216117216,96.9524182489084,32.923234939627584,
1770995744815.8867,1.2826086956521738,-5.804347826086956,-0.6847826086956521,-0.9910233393177738,-9.165769000598443,-3.317773788150808,4114.285714285714,1956.0439560439559,1.0,6.159461908590828,162.35184417737258,-5.694656488549618,-4.381679389312977,-3.099236641221374,-0.2908545727136432,0.25037481259370314,-0.3493253373313343,1323.076923076923,96.95812732738086,32.923234939627584,
1770995744835.4216,1.2608695652173914,-5.804347826086956,-0.75,-1.0197486535008977,-9.182525433871932,-3.3417115499700776,4102.5641025641025,1942.124542124542,1.0,6.159461908590828,162.35184417737258,-5.7251908396946565,-4.625954198473282,-3.0076335877862594,-0.27586206896551724,0.25037481259370314,-0.3448275862068965,1324.5421245421244,96.9524182489084,32.923234939627584,
1770995744854.9563,1.2391304347826086,-5.8478260869565215,-0.7717391304347826,-1.0628366247755834,-9.251944943147816,-3.3776181926989826,4086.4468864468863,1920.14652014652,1.0,6.159461908590828,162.35184417737258,-5.526717557251908,-4.641221374045801,-3.450381679389313,-0.2773613193403298,0.27136431784107945,-0.3583208395802099,1324.5421245421244,96.9524182489084,32.923234939627584,
1770995744874.4917,1.2282608695652173,-5.83695652173913,-0.75,-1.0795930580490725,-9.247157390783961,-3.3943746259724716,4114.285714285714,1947.9853479853477,1.0,6.159461908590828,162.35184417737258,-5.66412213740458,-4.061068702290076,-3.282442748091603,-0.27136431784107945,0.26836581709145424,-0.3523238380809595,1326.007326007326,96.9524182489084,32.923234939627584,
1770995744894.0264,1.2391304347826086,-5.782608695652174,-0.7391304347826086,-1.0915619389587072,-9.201675643327349,-3.3728306403351285,4114.285714285714,1955.311355311355,1.0,6.159461908590828,162.35184417737258,-5.450381679389313,-3.0534351145038165,-3.236641221374046,-0.2788605697151424,0.2383808095952024,-0.34782608695652173,1326.007326007326,96.9524182489084,32.923234939627584,
1770995744913.5613,1.2608695652173914,-5.782608695652174,-0.7826086956521738,-1.0604428485936566,-9.158587672052663,-3.4159186116098144,4114.285714285714,1957.5091575091574,1.0,6.159461908590828,162.35184417737258,-5.465648854961832,-1.648854961832061,-2.564885496183206,-0.27586206896551724,0.26686656671664166,-0.35082458770614694,1324.5421245421244,96.9524182489084,32.923234939627584,
1770995744933.096,1.2173913043478262,-5.706521739130435,-0.7717391304347826,-1.0748055056852184,-9.11310592459605,-3.4111310592459603,4109.89010989011,1956.7765567765566,1.0,6.159461908590828,162.35184417737258,-5.694656488549618,-2.2442748091603053,-2.4580152671755724,-0.27136431784107945,0.24287856071964017,-0.34782608695652173,1328.937728937729,96.9524182489084,32.923234939627584,
1770995744952.6309,1.2826086956521738,-5.728260869565217,-0.6956521739130435,-1.0341113105924595,-9.077199281867145,-3.3297426690604426,4086.4468864468863,1924.5421245421244,1.0,6.159461908590828,162.35184417737258,-5.251908396946565,-3.9847328244274807,-2.564885496183206,-0.280359820089955,0.2563718140929535,-0.34182908545727136,1328.937728937729,96.9524182489084,32.923234939627584,
1770995744972.1658,1.3369565217391304,-5.739130434782608,-0.6739130434782609,-0.952722920406942,-9.134649910233392,-3.28426092160383,4115.750915750916,1948.7179487179485,1.0,6.159461908590828,162.35184417737258,-5.450381679389313,-3.2061068702290076,-2.717557251908397,-0.2788605697151424,0.24737631184407796,-0.3613193403298351,1325.2747252747251,96.94670918168272,32.923234939627584,
1770995744991.7007,1.2282608695652173,-5.782608695652174,-0.7282608695652174,-1.0436864153201675,-9.165769000598443,-3.3632555356074207,4101.098901098901,1944.3223443223442,1.0,6.159461908590828,162.35184417737258,-5.633587786259541,-3.145038167938931,-2.396946564885496,-0.27436281859070466,0.26836581709145424,-0.35082458770614694,1333.3333333333333,96.95527278673879,32.923234939627584,
1770995745011.2356,1.1739130434782608,-5.804347826086956,-0.7717391304347826,-1.1298623578695393,-9.206463195691203,-3.3728306403351285,4114.285714285714,1954.5787545787543,1.0,6.159461908590828,162.35184417737258,-5.312977099236641,-3.16030534351145,-3.0381679389312977,-0.2818590704647676,0.2353823088455772,-0.34632683658170915,1367.032967032967,96.94670918168272,32.923234939627584,
1770995745030.7705,1.2173913043478262,-5.815217391304348,-0.7717391304347826,-1.0819868342309993,-9.239976062238181,-3.4135248354278875,4114.285714285714,1957.5091575091574,1.0,6.159461908590828,162.35184417737258,-5.312977099236641,-2.4732824427480917,-3.297709923664122,-0.2818590704647676,0.24137931034482757,-0.35082458770614694,1426.3736263736262,96.95527278673879,32.923234939627584,
1770995745050.3052,1.1956521739130435,-5.804347826086956,-0.8152173913043478,-1.0771992818671454,-9.189706762417714,-3.4446439257929384,4114.285714285714,1958.2417582417581,1.0,6.15435667700476,162.4865201161344,-5.465648854961832,-0.9618320610687022,-2.259541984732824,-0.28785607196401797,0.24137931034482757,-0.3523238380809595,1499.6336996336995,96.95527278673879,32.923234939627584,
1770995745069.84,1.184782608695652,-5.771739130434782,-0.8043478260869565,-1.1083183722321963,-9.16098144823459,-3.4111310592459603,4114.285714285714,1958.974358974359,1.0,6.15435667700476,162.4865201161344,-5.49618320610687,-0.732824427480916,-2.381679389312977,-0.280359820089955,0.2563718140929535,-0.34782608695652173,1572.8937728937728,96.9524182489084,32.923234939627584,
1770995745089.375,1.25,-5.728260869565217,-0.8369565217391304,-1.0700179533213645,-9.13704368641532,-3.430281268701376,4089.377289377289,1931.8681318681317,1.0,6.159461908590828,162.35184417737258,-5.3893129770992365,-0.15267175572519084,-2.427480916030534,-0.2653673163418291,0.25487256371814093,-0.3613193403298351,1615.3846153846152,96.9524182489084,32.923234939627584,
1770995745108.91,1.2717391304347825,-5.717391304347826,-0.7608695652173912,-1.0388988629563136,-9.127468581687612,-3.418312387791741,4084.981684981685,1910.6227106227104,1.0,6.159461908590828,162.35184417737258,-5.465648854961832,-0.47328244274809156,-2.33587786259542,-0.280359820089955,0.25337331334332835,-0.3583208395802099,1606.5934065934066,96.94956371388972,32.923234939627584,
1770995745128.4448,1.2826086956521738,-5.75,-0.7608695652173912,-0.9910233393177738,-9.132256134051467,-3.3847995212447635,4112.820512820513,1950.18315018315,1.0,6.159461908590828,162.35184417737258,-5.6183206106870225,0.21374045801526717,-2.229007633587786,-0.2788605697151424,0.2623688155922039,-0.35082458770614694,1561.9047619047617,96.9524182489084,32.923234939627584,
1770995745147.9795,1.2608695652173914,-5.793478260869565,-0.7608695652173912,-1.0197486535008977,-9.16816277678037,-3.3704368641532017,4098.1684981684975,1938.4615384615383,1.0,6.159461908590828,162.35184417737258,-5.847328244274809,-0.16793893129770993,-2.2900763358778624,-0.2788605697151424,0.24737631184407796,-0.35532233883058467,1498.9010989010987,96.95812732738086,32.923234939627584,
1770995745167.5146,1.2608695652173914,-5.815217391304348,-0.717391304347826,-1.0484739676840216,-9.213644524236983,-3.3608617594254935,4114.285714285714,1952.3809523809523,1.0,6.159461908590828,162.35184417737258,-5.6183206106870225,-0.8854961832061068,-2.33587786259542,-0.2773613193403298,0.24137931034482757,-0.34332833583208394,1438.8278388278388,96.95527278673879,32.923234939627584,
1770995745187.0493,1.2826086956521738,-5.83695652173913,-0.7282608695652174,-1.0029922202274086,-9.239976062238181,-3.3393177737881508,4114.285714285714,1956.7765567765566,1.0,6.15435667700476,162.4865201161344,-5.343511450381679,-1.8015267175572518,-2.229007633587786,-0.2818590704647676,0.24287856071964017,-0.35082458770614694,1394.139194139194,96.95812732738086,32.923234939627584,
1770995745206.5842,1.3043478260869565,-5.815217391304348,-0.6956521739130435,-0.9934171154997008,-9.223219628964692,-3.3081986834231,4111.355311355311,1956.7765567765566,1.0,6.15435667700476,162.4865201161344,-5.404580152671755,-2.015267175572519,-1.9083969465648853,-0.27436281859070466,0.24137931034482757,-0.3493253373313343,1373.6263736263736,96.95812732738086,32.923234939627584,
1770995745226.1191,1.2934782608695652,-5.771739130434782,-0.6739130434782609,-0.9910233393177738,-9.17773788150808,-3.296229802513465,4114.285714285714,1958.2417582417581,1.0,6.159461908590828,162.35184417737258,-5.038167938931298,-1.648854961832061,-2.259541984732824,-0.2788605697151424,0.24137931034482757,-0.3568215892053973,1369.230769230769,96.95812732738086,32.923234939627584,
1770995745245.654,1.326086956521739,-5.739130434782608,-0.7391304347826086,-0.947935368043088,-9.134649910233392,-3.2986235786953917,4111.355311355311,1957.5091575091574,1.0,6.159461908590828,162.35184417737258,-4.824427480916031,-1.4809160305343512,-2.5801526717557253,-0.280359820089955,0.24437781109445278,-0.34782608695652173,1372.161172161172,96.95527278673879,32.923234939627584,
1770995745265.189,1.2826086956521738,-5.75,-0.7065217391304348,-0.9622980251346499,-9.11310592459605,-3.3464991023339317,4114.285714285714,1958.974358974359,1.0,6.159461908590828,162.35184417737258,-4.412213740458015,-1.1908396946564885,-2.1068702290076335,-0.2773613193403298,0.2518740629685157,-0.36281859070464767,1373.6263736263736,96.9524182489084,32.923234939627584,
1770995745284.724,1.2608695652173914,-5.75,-0.75,-1.0269299820466786,-9.127468581687612,-3.3512866546977857,4112.820512820513,1964.102564102564,1.0,6.159461908590828,162.35184417737258,-4.3206106870229,-0.9465648854961831,-2.3053435114503817,-0.2788605697151424,0.2518740629685157,-0.35532233883058467,1375.091575091575,96.95527278673879,32.923234939627584,
1770995745304.2583,1.25,-5.782608695652174,-0.7826086956521738,-1.0317175344105325,-9.158587672052663,-3.3919808497905444,4096.7032967032965,1936.9963369963368,1.0,6.159461908590828,162.35184417737258,-3.9236641221374042,-0.9312977099236641,-2.4122137404580153,-0.2848575712143928,0.2698650674662669,-0.3583208395802099,1369.230769230769,96.9524182489084,32.923234939627584,
1770995745323.7937,1.2065217391304348,-5.793478260869565,-0.8260869565217391,-1.0460801915020945,-9.180131657690005,-3.4135248354278875,4114.285714285714,1952.3809523809523,1.0,6.159461908590828,162.35184417737258,-4.030534351145038,-0.7022900763358778,-1.816793893129771,-0.280359820089955,0.24587706146926536,-0.35082458770614694,1358.974358974359,96.9524182489084,32.923234939627584,
1770995745343.3284,1.2065217391304348,-5.804347826086956,-0.7826086956521738,-1.0939557151406343,-9.189706762417714,-3.4063435068821066,4114.285714285714,1956.7765567765566,1.0,6.15435667700476,162.4865201161344,-3.7709923664122136,-0.7022900763358778,-2.351145038167939,-0.2848575712143928,0.24137931034482757,-0.34632683658170915,1365.5677655677655,96.95812732738086,32.923234939627584,
1770995745362.8633,1.2282608695652173,-5.771739130434782,-0.7826086956521738,-1.0556552962298025,-9.172950329144225,-3.3847995212447635,4112.820512820513,1963.3699633699632,1.0,6.15435667700476,162.4865201161344,-4.015267175572519,-0.6870229007633587,-2.015267175572519,-0.2788605697151424,0.2368815592203898,-0.34782608695652173,1378.021978021978,96.94956371388972,32.923234939627584,
1770995745382.3982,1.2826086956521738,-5.760869565217392,-0.7282608695652174,-1.0341113105924595,-9.165769000598443,-3.3608617594254935,4114.285714285714,1960.4395604395604,1.0,6.15435667700476,162.4865201161344,-3.9083969465648853,-0.564885496183206,-1.8473282442748091,-0.272863568215892,0.2383808095952024,-0.34332833583208394,1373.6263736263736,96.9524182489084,32.923234939627584,
1770995745401.933,1.2391304347826086,-5.771739130434782,-0.7391304347826086,-1.0484739676840216,-9.180131657690005,-3.3417115499700776,4112.820512820513,1964.8351648351647,1.0,6.15435667700476,162.4865201161344,-3.9541984732824424,0.2595419847328244,-2.1374045801526718,-0.2818590704647676,0.24887556221889054,-0.3613193403298351,1356.0439560439559,96.95812732738086,32.923234939627584,
1770995745421.4678,1.25,-5.771739130434782,-0.75,-1.0412926391382404,-9.151406343506881,-3.3512866546977857,4115.750915750916,1967.032967032967,1.0,6.15435667700476,162.4865201161344,-3.679389312977099,0.061068702290076333,-2.3206106870229006,-0.2833583208395802,0.24587706146926536,-0.35082458770614694,1335.5311355311355,96.95527278673879,32.923234939627584,
1770995745441.0027,1.2391304347826086,-5.75,-0.75,-1.0484739676840216,-9.151406343506881,-3.3776181926989826,4114.285714285714,1960.4395604395604,1.0,6.15435667700476,162.4865201161344,-3.66412213740458,0.7938931297709924,-2.229007633587786,-0.2773613193403298,0.2563718140929535,-0.35982008995502246,1326.7399267399267,96.9524182489084,32.923234939627584,
1770995745460.5376,1.2717391304347825,-5.760869565217392,-0.7608695652173912,-1.0341113105924595,-9.153800119688809,-3.3393177737881508,4098.1684981684975,1941.3919413919414,1.0,6.159461908590828,162.35184417737258,-3.8167938931297707,0.4580152671755725,-2.5343511450381677,-0.2788605697151424,0.2608695652173913,-0.3448275862068965,1331.135531135531,96.9524182489084,32.923234939627584,
1770995745480.0725,1.2608695652173914,-5.782608695652174,-0.7608695652173912,-1.0436864153201675,-9.16816277678037,-3.3800119688809094,4087.912087912088,1920.8791208791208,1.0,6.15435667700476,162.4865201161344,-3.9236641221374042,0.4580152671755725,-1.7862595419847327,-0.2818590704647676,0.2698650674662669,-0.3568215892053973,1337.7289377289376,96.9524182489084,32.923234939627584,
1770995745499.6074,1.2282608695652173,-5.804347826086956,-0.7608695652173912,-1.0532615200478754,-9.16816277678037,-3.3584679832435667,4114.285714285714,1947.9853479853477,1.0,6.15435667700476,162.4865201161344,-3.9389312977099236,-0.3053435114503817,-2.015267175572519,-0.2833583208395802,0.2623688155922039,-0.35532233883058467,1342.8571428571427,96.94670918168272,32.923234939627584,
1770995745519.1423,1.2826086956521738,-5.782608695652174,-0.7282608695652174,-1.0532615200478754,-9.175344105326152,-3.3464991023339317,4114.285714285714,1955.311355311355,1.0,6.15435667700476,162.4865201161344,-4.015267175572519,-1.297709923664122,-2.0610687022900764,-0.2833583208395802,0.24587706146926536,-0.3373313343328336,1345.054945054945,96.95527278673879,32.923234939627584,
1770995745538.6772,1.2717391304347825,-5.815217391304348,-0.6847826086956521,-1.0221424296828245,-9.201675643327349,-3.3034111310592458,4114.285714285714,1957.5091575091574,1.0,6.15435667700476,162.4865201161344,-3.9389312977099236,-1.083969465648855,-1.9236641221374045,-0.27586206896551724,0.2368815592203898,-0.3493253373313343,1349.4505494505493,96.95812732738086,32.923234939627584,
1770995745558.212,1.2608695652173914,-5.83695652173913,-0.7065217391304348,-1.0149611011370436,-9.242369838420107,-3.296229802513465,4112.820512820513,1964.102564102564,1.0,6.15435667700476,162.4865201161344,-3.465648854961832,-0.6870229007633587,-1.8473282442748091,-0.2863568215892054,0.25037481259370314,-0.3523238380809595,1351.6483516483515,96.9524182489084,32.923234939627584,
1770995745577.7468,1.25,-5.869565217391304,-0.717391304347826,-1.0173548773189707,-9.247157390783961,-3.3417115499700776,4114.285714285714,1960.4395604395604,1.0,6.15435667700476,162.4865201161344,-3.633587786259542,-0.2748091603053435,-2.045801526717557,-0.2818590704647676,0.24887556221889054,-0.3448275862068965,1354.5787545787546,96.95527278673879,32.923234939627584,
1770995745597.2815,1.25,-5.826086956521739,-0.6956521739130435,-1.0388988629563136,-9.249551166965889,-3.274685816876122,4114.285714285714,1959.7069597069597,1.0,6.15435667700476,162.4865201161344,-3.2061068702290076,-0.183206106870229,-2.3206106870229006,-0.2818590704647676,0.24587706146926536,-0.3523238380809595,1364.102564102564,96.94956371388972,32.923234939627584,
1770995745616.817,1.2934782608695652,-5.75,-0.6847826086956521,-0.9982046678635548,-9.182525433871932,-3.2986235786953917,4096.7032967032965,1934.7985347985348,1.0,6.15435667700476,162.4865201161344,-3.49618320610687,0.564885496183206,-2.6412213740458013,-0.29235382308845576,0.24587706146926536,-0.33883058470764615,1370.6959706959706,96.95527278673879,32.923234939627584,
1770995745636.3516,1.2826086956521738,-5.739130434782608,-0.6847826086956521,-0.9814482345900658,-9.134649910233392,-3.3034111310592458,4115.750915750916,1958.2417582417581,1.0,6.15435667700476,162.4865201161344,-3.541984732824427,-0.13740458015267176,-2.16793893129771,-0.2788605697151424,0.24437781109445278,-0.3448275862068965,1366.3003663003662,96.95812732738086,32.923234939627584,
1770995745655.8865,1.3043478260869565,-5.717391304347826,-0.6739130434782609,-0.9958108916816277,-9.12028725314183,-3.3105924596050267,4114.285714285714,1958.974358974359,1.0,6.15435667700476,162.4865201161344,-3.6946564885496183,-1.0687022900763359,-2.3053435114503817,-0.2788605697151424,0.239880059970015,-0.3523238380809595,1349.4505494505493,96.95812732738086,32.923234939627584,
1770995745675.4211,1.3478260869565217,-5.782608695652174,-0.6413043478260869,-0.947935368043088,-9.151406343506881,-3.253141831238779,4112.820512820513,1964.102564102564,1.0,6.15435667700476,162.4865201161344,-3.9389312977099236,-3.282442748091603,-2.778625954198473,-0.2788605697151424,0.2608695652173913,-0.3523238380809595,1345.7875457875457,96.95527278673879,32.923234939627584,
1770995745694.956,1.358695652173913,-5.793478260869565,-0.6304347826086957,-0.9168162776780371,-9.192100538599641,-3.2244165170556554,4114.285714285714,1960.4395604395604,1.0,6.15435667700476,162.4865201161344,-4.152671755725191,-4.061068702290076,-2.9923664122137406,-0.2818590704647676,0.24137931034482757,-0.3448275862068965,1342.8571428571427,96.95527278673879,32.923234939627584,
1770995745714.491,1.2608695652173914,-5.8478260869565215,-0.6304347826086957,-0.9814482345900658,-9.237582286056254,-3.233991621783363,4090.8424908424904,1927.4725274725274,1.0,6.15435667700476,162.4865201161344,-4.122137404580153,-5.175572519083969,-2.717557251908397,-0.2833583208395802,0.2578710644677661,-0.3613193403298351,1348.7179487179487,96.95527278673879,32.923234939627584,
1770995745734.026,1.2717391304347825,-5.858695652173913,-0.6521739130434783,-1.0460801915020945,-9.251944943147816,-3.2076600837821663,4114.285714285714,1950.18315018315,1.0,6.15435667700476,162.4865201161344,-3.8625954198473282,-5.801526717557252,-3.6488549618320607,-0.2773613193403298,0.25487256371814093,-0.3493253373313343,1397.8021978021977,96.95812732738086,32.923234939627584,
1770995745753.5608,1.2934782608695652,-5.804347826086956,-0.6847826086956521,-0.9958108916816277,-9.223219628964692,-3.28426092160383,4112.820512820513,1961.172161172161,1.0,6.15435667700476,162.4865201161344,-3.8931297709923665,-4.977099236641221,-3.633587786259542,-0.280359820089955,0.2518740629685157,-0.3523238380809595,1478.3882783882782,96.9524182489084,32.923234939627584,
1770995745773.0957,1.2608695652173914,-5.782608695652174,-0.7608695652173912,-1.0460801915020945,-9.187312986235787,-3.317773788150808,4095.238095238095,1940.6593406593406,1.0,6.15435667700476,162.4865201161344,-3.877862595419847,-4.198473282442748,-3.0534351145038165,-0.2818590704647676,0.25337331334332835,-0.34632683658170915,1547.985347985348,96.95812732738086,32.923234939627584,
1770995745792.6304,1.1956521739130435,-5.739130434782608,-0.7826086956521738,-1.0891681627767804,-9.151406343506881,-3.3847995212447635,4114.285714285714,1953.8461538461538,1.0,6.15435667700476,162.4865201161344,-3.9847328244274807,-3.8167938931297707,-2.931297709923664,-0.2893553223388306,0.2383808095952024,-0.35532233883058467,1594.8717948717947,96.96098187083464,32.923234939627584,
1770995745812.1653,1.2391304347826086,-5.728260869565217,-0.75,-1.0604428485936566,-9.125074805505685,-3.3871932974266907,4114.285714285714,1957.5091575091574,1.0,6.15435667700476,162.4865201161344,-3.8625954198473282,-4.152671755725191,-2.854961832061069,-0.2818590704647676,0.27136431784107945,-0.3538230884557721,1608.058608058608,96.9524182489084,32.923234939627584,
1770995745831.7002,1.2934782608695652,-5.804347826086956,-0.75,-0.9982046678635548,-9.204069419509276,-3.3536804308797126,4112.820512820513,1963.3699633699632,1.0,6.159461908590828,162.35184417737258,-3.7709923664122136,-4.580152671755725,-2.6259541984732824,-0.2833583208395802,0.2623688155922039,-0.35082458770614694,1583.150183150183,96.95812732738086,32.923234939627584,
1770995745851.235,1.2717391304347825,-5.83695652173913,-0.7934782608695652,-1.0149611011370436,-9.235188509874327,-3.3919808497905444,4098.1684981684975,1942.124542124542,1.0,6.15435667700476,162.4865201161344,-3.847328244274809,-3.3587786259541983,-2.33587786259542,-0.2848575712143928,0.24587706146926536,-0.3613193403298351,1527.4725274725274,96.95812732738086,32.923234939627584,
1770995745870.77,1.2173913043478262,-5.826086956521739,-0.75,-1.0867743865948534,-9.218432076600838,-3.3704368641532017,4112.820512820513,1958.974358974359,1.0,6.15435667700476,162.4865201161344,-3.4045801526717554,-3.0534351145038165,-2.427480916030534,-0.2818590704647676,0.2563718140929535,-0.3493253373313343,1464.4688644688645,96.95812732738086,32.923234939627584,
1770995745890.305,1.2717391304347825,-5.815217391304348,-0.7608695652173912,-1.0628366247755834,-9.199281867145421,-3.3536804308797126,4114.285714285714,1958.974358974359,1.0,6.15435667700476,162.4865201161344,-3.2519083969465647,-3.129770992366412,-3.2213740458015265,-0.29235382308845576,0.25487256371814093,-0.3568215892053973,1407.3260073260071,96.95812732738086,32.923234939627584,
1770995745909.8398,1.326086956521739,-5.826086956521739,-0.717391304347826,-0.9838420107719928,-9.20885697187313,-3.3034111310592458,4114.285714285714,1958.974358974359,1.0,6.15435667700476,162.4865201161344,-3.4198473282442747,-3.0381679389312977,-3.0076335877862594,-0.28785607196401797,0.2578710644677661,-0.3538230884557721,1363.3699633699632,96.95527278673879,32.923234939627584,
1770995745929.3745,1.2934782608695652,-5.815217391304348,-0.7065217391304348,-1.0101735487731898,-9.199281867145421,-3.305804907241173,4095.238095238095,1939.9267399267399,1.0,6.15435667700476,162.4865201161344,-3.236641221374046,-2.610687022900763,-2.778625954198473,-0.2833583208395802,0.2578710644677661,-0.35082458770614694,1339.194139194139,96.9524182489084,32.923234939627584,
1770995745948.9094,1.2934782608695652,-5.782608695652174,-0.7282608695652174,-1.0149611011370436,-9.20885697187313,-3.3105924596050267,4115.750915750916,1959.7069597069597,1.0,6.15435667700476,162.4865201161344,-2.9618320610687023,-2.198473282442748,-3.068702290076336,-0.2848575712143928,0.2383808095952024,-0.3538230884557721,1340.6593406593406,96.94670918168272,32.923234939627584,
1770995745968.4443,1.2934782608695652,-5.728260869565217,-0.6956521739130435,-1.0029922202274086,-9.141831238779174,-3.33213644524237,4114.285714285714,1965.5677655677655,1.0,6.15435667700476,162.4865201161344,-2.931297709923664,-1.7557251908396947,-3.6488549618320607,-0.2833583208395802,0.2383808095952024,-0.3538230884557721,1355.3113553113553,96.95527278673879,32.923234939627584,
1770995745987.9792,1.2826086956521738,-5.75,-0.6413043478260869,-1.0173548773189707,-9.122681029323758,-3.296229802513465,4112.820512820513,1966.3003663003662,1.0,6.15435667700476,162.4865201161344,-3.1908396946564883,-2.2900763358778624,-3.236641221374046,-0.2893553223388306,0.2653673163418291,-0.35532233883058467,1369.9633699633698,96.95527278673879,32.923234939627584,
1770995746007.5142,1.2391304347826086,-5.83695652173913,-0.6521739130434783,-1.0388988629563136,-9.17773788150808,-3.272292040694195,4114.285714285714,1960.4395604395604,1.0,6.15435667700476,162.4865201161344,-3.3587786259541983,-2.687022900763359,-3.282442748091603,-0.2893553223388306,0.25337331334332835,-0.37181409295352325,1380.2197802197802,96.95812732738086,32.923234939627584,
1770995746027.049,1.2391304347826086,-5.858695652173913,-0.6521739130434783,-1.0508677438659486,-9.26391382405745,-3.2435667265110713,4114.285714285714,1958.974358974359,1.0,6.159461908590828,162.35184417737258,-3.3893129770992365,-3.0076335877862594,-3.1908396946564883,-0.28785607196401797,0.2563718140929535,-0.3583208395802099,1397.069597069597,96.95527278673879,32.923234939627584,
1770995746046.5835,1.2391304347826086,-5.8478260869565215,-0.7065217391304348,-1.0532615200478754,-9.292639138240574,-3.274685816876122,4114.285714285714,1958.974358974359,1.0,6.15435667700476,162.4865201161344,-3.312977099236641,-2.549618320610687,-3.129770992366412,-0.2818590704647676,0.2518740629685157,-0.3748125937031484,1404.3956043956043,96.95448004186154,32.918209839239715,
1770995746066.119,1.2065217391304348,-5.804347826086956,-0.7717391304347826,-1.0771992818671454,-9.192100538599641,-3.3776181926989826,4114.285714285714,1958.2417582417581,1.0,6.159461908590828,162.35184417737258,-2.916030534351145,-1.1908396946564885,-2.9923664122137406,-0.28785607196401797,0.2518740629685157,-0.36731634182908546,1403.6630036630036,96.96304360278624,32.918209839239715,
