Shimmer_A679_TimestampSync_Unix_CAL,Shimmer_A679_Accel_LN_X_CAL,Shimmer_A679_Accel_LN_Y_CAL,Shimmer_A679_Accel_LN_Z_CAL,Shimmer_A679_Accel_WR_X_CAL,Shimmer_A679_Accel_WR_Y_CAL,Shimmer_A679_Accel_WR_Z_CAL,Shimmer_A679_Battery_CAL,Shimmer_A679_Ext_Exp_A15_CAL,Shimmer_A679_GSR_Range_CAL,Shimmer_A679_GSR_Skin_Conductance_CAL,Shimmer_A679_GSR_Skin_Resistance_CAL,Shimmer_A679_Gyro_X_CAL,Shimmer_A679_Gyro_Y_CAL,Shimmer_A679_Gyro_Z_CAL,Shimmer_A679_Mag_X_CAL,Shimmer_A679_Mag_Y_CAL,Shimmer_A679_Mag_Z_CAL,Shimmer_A679_PPG_A13_CAL,Shimmer_A679_Pressure_BMP280_CAL,Shimmer_A679_Temperature_BMP280_CAL,Unnamed: 21
1770997697072.483,0.21739130434782608,-5.804347826086956,-0.8695652173913043,-2.329144225014961,-9.141831238779174,-3.4566128067025734,4048.3516483516482,1843.956043956044,1.0,7.578716289517684,131.9484674974739,6.305343511450381,-0.564885496183206,-21.374045801526716,-0.31334332833583206,0.2578710644677661,-0.40929535232383807,1432.2344322344322,96.95847995849678,33.63177700790111,
1770997697092.1094,0.31521739130434784,-5.782608695652174,-1.108695652173913,-2.073010173548773,-9.218432076600838,-3.65769000598444,4073.260073260073,1869.5970695970695,1.0,7.578716289517684,131.9484674974739,7.66412213740458,1.83206106870229,-18.671755725190838,-0.31784107946026985,0.26836581709145424,-0.4287856071964018,1566.3003663003662,96.95847995849678,33.63177700790111,
1770997697189.692,0.25,-5.5,-1.2717391304347825,-2.140035906642729,-8.880909634949132,-3.897067624177139,4074.7252747252746,1886.4468864468863,1.0,7.599137215861955,131.5938864628821,5.236641221374046,-1.3740458015267174,-15.740458015267174,-0.31784107946026985,0.24437781109445278,-0.4332833583208396,2395.6043956043954,96.95847995849678,33.63177700790111,
1770997697209.3186,0.043478260869565216,-5.489130434782608,-1.3695652173913042,-2.360263315380012,-8.876122082585278,-4.014362657091562,4051.282051282051,1855.6776556776556,1.0,7.599137215861955,131.5938864628821,4.2748091603053435,-1.297709923664122,-16.061068702290076,-0.31784107946026985,0.24887556221889054,-0.43778110944527737,2280.5860805860802,96.95847995849678,33.63177700790111,
1770997697228.8535,-0.021739130434782608,-5.4021739130434785,-1.4565217391304348,-2.4488330341113107,-8.775583482944345,-4.098144823459006,4073.260073260073,1873.260073260073,1.0,7.599137215861955,131.5938864628821,3.9541984732824424,-1.6335877862595418,-16.83969465648855,-0.3118440779610195,0.272863568215892,-0.43928035982008995,2114.285714285714,96.95847995849678,33.63177700790111,
1770997697248.3884,0.09782608695652173,-5.391304347826087,-1.358695652173913,-2.331538001196888,-8.72292040694195,-4.026331538001196,4073.260073260073,1877.6556776556774,1.0,7.594031984275887,131.68235294117648,3.5267175572519083,-2.7938931297709924,-17.053435114503817,-0.3148425787106447,0.2593703148425787,-0.44377811094452774,1906.9597069597069,96.95562226379015,33.63177700790111,
1770997697267.923,0.17391304347826086,-5.423913043478261,-1.2826086956521738,-2.2381807301017353,-8.785158587672052,-3.9425493716337523,4058.6080586080584,1862.2710622710622,1.0,7.594031984275887,131.68235294117648,2.1068702290076335,-1.4961832061068703,-15.038167938931297,-0.3148425787106447,0.2593703148425787,-0.4407796101949025,1682.7838827838827,96.95847995849678,33.63177700790111,
1770997697287.458,0.20652173913043478,-5.521739130434782,-1.326086956521739,-2.2238180730101735,-8.904847396768401,-3.968880909634949,4076.1904761904757,1881.3186813186812,1.0,7.594031984275887,131.68235294117648,0.061068702290076333,-0.3969465648854962,-12.335877862595419,-0.32233883058470764,0.239880059970015,-0.43928035982008995,1476.1904761904761,96.95276457190144,33.63177700790111,
1770997697306.993,0.13043478260869565,-5.576086956521739,-1.358695652173913,-2.2453620586475163,-8.926391382405745,-4.004787552363854,4074.7252747252746,1886.4468864468863,1.0,7.594031984275887,131.68235294117648,-2.763358778625954,1.2366412213740459,-9.786259541984732,-0.32533733133433285,0.25037481259370314,-0.4467766116941529,1326.007326007326,96.95562226379015,33.63177700790111,
1770997697326.5278,0.05434782608695652,-5.510869565217392,-1.3695652173913042,-2.338719329742669,-8.907241172950329,-4.028725314183124,4073.260073260073,1881.3186813186812,1.0,7.594031984275887,131.68235294117648,-5.022900763358779,1.8015267175572518,-8.015267175572518,-0.32533733133433285,0.24887556221889054,-0.43928035982008995,1263.003663003663,96.95276457190144,33.63177700790111,
1770997697346.0627,0.10869565217391304,-5.478260869565217,-1.2608695652173914,-2.379413524835428,-8.849790544584081,-3.988031119090365,4063.003663003663,1870.3296703296703,1.0,7.594031984275887,131.68235294117648,-6.946564885496183,-0.7022900763358778,-6.244274809160305,-0.328335832083958,0.25487256371814093,-0.424287856071964,1261.5384615384614,96.96133765602133,33.63177700790111,
1770997697365.5977,0.2608695652173913,-5.467391304347826,-1.1304347826086956,-2.2118491921005385,-8.823459006582885,-3.8587672052663073,4051.282051282051,1852.0146520146518,1.0,7.594031984275887,131.68235294117648,-9.145038167938932,-2.8854961832061066,-2.381679389312977,-0.3238380809595202,0.2383808095952024,-0.43778110944527737,1325.2747252747251,96.95562226379015,33.63177700790111,
1770997697385.1323,0.33695652173913043,-5.532608695652174,-1.0978260869565217,-2.0897666068222622,-8.861759425493716,-3.763016157989228,4046.8864468864467,1838.8278388278386,1.0,7.594031984275887,131.68235294117648,-10.885496183206106,-3.7709923664122136,1.3740458015267174,-0.31784107946026985,0.2608695652173913,-0.43778110944527737,1424.9084249084249,96.95562226379015,33.63177700790111,
1770997697404.6672,0.18478260869565216,-5.554347826086956,-1.1630434782608696,-2.142429682824656,-8.935966487133452,-3.7701974865350087,4074.7252747252746,1874.7252747252746,1.0,7.594031984275887,131.68235294117648,-11.908396946564885,-4.900763358778626,4.67175572519084,-0.3238380809595202,0.2353823088455772,-0.4422788605697151,1526.7399267399267,96.96133765602133,33.63177700790111,
1770997697424.202,0.07608695652173914,-5.554347826086956,-1.1739130434782608,-2.2692998204667862,-8.93836026331538,-3.8372232196289646,4054.212454212454,1859.3406593406592,1.0,7.594031984275887,131.68235294117648,-12.427480916030534,-5.465648854961832,6.076335877862595,-0.3193403298350824,0.2578710644677661,-0.44377811094452774,1590.4761904761904,96.95847995849678,33.63177700790111,
1770997697443.737,0.10869565217391304,-5.554347826086956,-1.076086956521739,-2.324356672651107,-8.919210053859963,-3.75344105326152,4071.7948717948716,1873.9926739926739,1.0,7.594031984275887,131.68235294117648,-12.015267175572518,-6.137404580152672,5.6183206106870225,-0.3238380809595202,0.2578710644677661,-0.4302848575712144,1602.9304029304028,96.95562226379015,33.63177700790111,
1770997697463.272,0.22826086956521738,-5.5978260869565215,-1.0869565217391304,-2.1926989826451226,-8.981448234590065,-3.7151406343506883,4071.7948717948716,1883.5164835164833,1.0,7.594031984275887,131.68235294117648,-11.954198473282442,-5.343511450381679,5.572519083969466,-0.3238380809595202,0.24887556221889054,-0.4407796101949025,1578.7545787545787,96.95276457190144,33.63177700790111,
1770997697482.807,0.22826086956521738,-5.521739130434782,-1.0869565217391304,-2.12327947336924,-8.935966487133452,-3.724715739078396,4070.32967032967,1879.8534798534797,1.0,7.594031984275887,131.68235294117648,-11.770992366412214,-4.137404580152672,5.847328244274809,-0.3193403298350824,0.24737631184407796,-0.4287856071964018,1538.4615384615383,96.94990688283065,33.63177700790111,
1770997697502.3418,0.15217391304347827,-5.445652173913043,-1.0869565217391304,-2.1950927588270495,-8.82585278276481,-3.739078396169958,4071.7948717948716,1885.7142857142856,1.0,7.594031984275887,131.68235294117648,-11.755725190839694,-2.687022900763359,5.709923664122138,-0.32083958020989506,0.25037481259370314,-0.4257871064467766,1484.2490842490843,96.96133765602133,33.63177700790111,
1770997697521.8765,0.17391304347826086,-5.423913043478261,-1.076086956521739,-2.2381807301017353,-8.821065230400958,-3.7031717534410533,4070.32967032967,1880.5860805860805,1.0,7.594031984275887,131.68235294117648,-10.366412213740457,-1.7099236641221374,4.534351145038168,-0.3193403298350824,0.26686656671664166,-0.43628185907046474,1416.117216117216,96.96133765602133,33.63177700790111,
1770997697541.4114,0.2826086956521739,-5.4021739130434785,-1.0978260869565217,-2.1328545780969477,-8.792339916217834,-3.70556552962298,4071.7948717948716,1885.7142857142856,1.0,7.599137215861955,131.5938864628821,-9.862595419847327,-2.4427480916030535,4.091603053435114,-0.3268365817091454,0.24587706146926536,-0.4302848575712144,1339.194139194139,96.96133765602133,33.63177700790111,
1770997697560.9463,0.2608695652173913,-5.423913043478261,-1.076086956521739,-2.1256732495511668,-8.792339916217834,-3.7103530819868342,4071.7948717948716,1887.179487179487,1.0,7.594031984275887,131.68235294117648,-9.954198473282442,-1.5114503816793892,4.778625954198473,-0.3058470764617691,0.2563718140929535,-0.43928035982008995,1268.131868131868,96.96419535636376,33.63177700790111,
1770997697580.4812,0.20652173913043478,-5.434782608695652,-1.076086956521739,-2.1855176540993417,-8.777977259126272,-3.6792339916217833,4052.7472527472523,1857.142857142857,1.0,7.588926752689819,131.77093844601413,-9.435114503816793,0.183206106870229,4.687022900763359,-0.3073463268365817,0.2593703148425787,-0.43628185907046474,1226.3736263736264,96.95847995849678,33.63177700790111,
1770997697600.016,0.2717391304347826,-5.445652173913043,-1.065217391304348,-2.1615798922800717,-8.809096349491321,-3.6983842010771992,4042.490842490842,1838.8278388278386,1.0,7.594031984275887,131.68235294117648,-8.564885496183205,1.5725190839694656,4.33587786259542,-0.3118440779610195,0.2518740629685157,-0.43178410794602695,1204.3956043956043,96.96133765602133,33.63177700790111,
1770997697619.551,0.30434782608695654,-5.478260869565217,-1.1304347826086956,-2.096947935368043,-8.849790544584081,-3.798922800718133,4070.32967032967,1868.131868131868,1.0,7.594031984275887,131.68235294117648,-7.801526717557252,4.8396946564885495,4.961832061068702,-0.3238380809595202,0.25337331334332835,-0.43928035982008995,1204.3956043956043,96.96133765602133,33.63177700790111,
1770997697639.0857,0.17391304347826086,-5.565217391304348,-1.2065217391304348,-2.1974865350089767,-8.9311789347696,-3.8084979054458405,4070.32967032967,1875.4578754578754,1.0,7.588926752689819,131.77093844601413,-7.206106870229007,8.0,5.49618320610687,-0.3193403298350824,0.24437781109445278,-0.42278860569715143,1221.245421245421,96.96133765602133,33.63177700790111,
1770997697658.6206,0.10869565217391304,-5.543478260869565,-1.25,-2.3052064631956912,-8.928785158587672,-3.8994614003590664,4071.7948717948716,1884.249084249084,1.0,7.594031984275887,131.68235294117648,-6.305343511450381,8.50381679389313,4.687022900763359,-0.3148425787106447,0.24887556221889054,-0.43478260869565216,1238.095238095238,96.95847995849678,33.63177700790111,
1770997697678.1555,0.16304347826086957,-5.467391304347826,-1.2391304347826086,-2.2238180730101735,-8.847396768402154,-3.8659485338120887,4068.8644688644686,1879.8534798534797,1.0,7.588926752689819,131.77093844601413,-5.66412213740458,8.473282442748092,3.4351145038167936,-0.31334332833583206,0.27436281859070466,-0.43178410794602695,1235.164835164835,96.96133765602133,33.63177700790111,
1770997697697.6904,0.21739130434782608,-5.434782608695652,-1.184782608695652,-2.1567923399162177,-8.816277678037103,-3.8276481149012564,4042.490842490842,1844.6886446886447,1.0,7.588926752689819,131.77093844601413,-5.374045801526718,8.977099236641221,3.4198473282442747,-0.31334332833583206,0.27436281859070466,-0.42728635682158916,1210.989010989011,96.96419535636376,33.63177700790111,
1770997697717.225,0.2717391304347826,-5.423913043478261,-1.1304347826086956,-2.12327947336924,-8.78755236385398,-3.755834829443447,4070.32967032967,1869.5970695970695,1.0,7.588926752689819,131.77093844601413,-6.091603053435114,8.778625954198473,4.061068702290076,-0.3118440779610195,0.2638680659670165,-0.4302848575712144,1175.0915750915751,96.95276457190144,33.63177700790111,
1770997697736.7605,0.2608695652173913,-5.467391304347826,-1.0869565217391304,-2.135248354278875,-8.797127468581687,-3.736684619988031,4051.282051282051,1851.2820512820513,1.0,7.588926752689819,131.77093844601413,-6.702290076335878,8.16793893129771,5.312977099236641,-0.30134932533733133,0.24737631184407796,-0.41529235382308843,1162.6373626373625,96.95562226379015,33.63177700790111,
1770997697756.295,0.2934782608695652,-5.489130434782608,-1.0978260869565217,-2.118491921005386,-8.837821663674447,-3.739078396169958,4043.9560439560437,1831.5018315018315,1.0,7.594031984275887,131.68235294117648,-7.114503816793893,7.938931297709924,6.106870229007633,-0.3148425787106447,0.25487256371814093,-0.4332833583208396,1224.1758241758241,96.95562226379015,33.63177700790111,
1770997697775.8298,0.2934782608695652,-5.576086956521739,-1.108695652173913,-2.0897666068222622,-8.895272292040694,-3.727109515260323,4071.7948717948716,1872.5274725274724,1.0,7.594031984275887,131.68235294117648,-6.6106870229007635,8.061068702290076,6.900763358778626,-0.3088455772113943,0.2593703148425787,-0.4257871064467766,1386.080586080586,96.95562226379015,33.63177700790111,
1770997697795.3647,0.2826086956521739,-5.630434782608695,-1.1304347826086956,-2.1137043686415318,-8.983842010771992,-3.765409934171155,4073.260073260073,1877.6556776556774,1.0,7.594031984275887,131.68235294117648,-6.458015267175572,9.129770992366412,6.99236641221374,-0.31634182908545727,0.24887556221889054,-0.41829085457271364,1627.8388278388277,96.95847995849678,33.63177700790111,
1770997697814.8997,0.2826086956521739,-5.5978260869565215,-1.1956521739130435,-2.1328545780969477,-9.002992220227409,-3.8252543387193296,4058.6080586080584,1863.003663003663,1.0,7.594031984275887,131.68235294117648,-4.854961832061068,11.129770992366412,6.351145038167939,-0.3043478260869565,0.27586206896551724,-0.4212893553223388,1904.0293040293038,96.95562226379015,33.63177700790111,
1770997697834.4346,0.31521739130434784,-5.456521739130435,-1.1521739130434783,-2.09934171154997,-8.87372830640335,-3.8372232196289646,4051.282051282051,1849.084249084249,1.0,7.594031984275887,131.68235294117648,-4.091603053435114,11.893129770992365,5.740458015267175,-0.3028485757121439,0.272863568215892,-0.4212893553223388,2119.4139194139193,96.95847995849678,33.63177700790111,
1770997697853.9695,0.31521739130434784,-5.445652173913043,-1.0326086956521738,-2.073010173548773,-8.804308797127469,-3.7031717534410533,4048.3516483516482,1843.956043956044,1.0,7.599137215861955,131.5938864628821,-3.877862595419847,11.786259541984732,5.786259541984733,-0.3088455772113943,0.24737631184407796,-0.41529235382308843,2198.5347985347985,96.95847995849678,33.63177700790111,
1770997697912.4824,0.40217391304347827,-5.510869565217392,-1.0869565217391304,-1.9772591262716936,-8.888090963494912,-3.727109515260323,4076.1904761904757,1887.9120879120878,1.0,7.604242447448021,131.5055387713998,-6.748091603053435,10.946564885496183,8.030534351145038,-0.3148425787106447,0.2578710644677661,-0.41529235382308843,1648.3516483516482,96.95276457190144,33.63177700790111,
1770997697932.109,0.31521739130434784,-5.478260869565217,-1.1195652173913042,-2.0658288450029922,-8.878515858767205,-3.755834829443447,4076.1904761904757,1888.6446886446886,1.0,7.604242447448021,131.5055387713998,-7.511450381679389,10.13740458015267,8.702290076335878,-0.3073463268365817,0.24737631184407796,-0.40929535232383807,1408.7912087912086,96.95847995849678,33.63177700790111,
1770997697951.6438,0.31521739130434784,-5.521739130434782,-1.0217391304347825,-2.106523040095751,-8.878515858767205,-3.6768402154398565,4073.260073260073,1882.051282051282,1.0,7.604242447448021,131.5055387713998,-7.435114503816793,8.65648854961832,8.091603053435113,-0.3118440779610195,0.26836581709145424,-0.4122938530734633,1203.6630036630036,96.96133765602133,33.63177700790111,
1770997697971.1787,0.42391304347826086,-5.554347826086956,-0.967391304347826,-1.9964093357271095,-8.9311789347696,-3.595451825254339,4074.7252747252746,1886.4468864468863,1.0,7.609347679034089,131.41730962764174,-7.633587786259541,5.9541984732824424,8.305343511450381,-0.3043478260869565,0.27586206896551724,-0.40629685157421286,1050.5494505494505,96.95847995849678,33.63177700790111,
1770997697990.7136,0.5108695652173912,-5.641304347826087,-0.967391304347826,-1.871932974266906,-9.010173548773189,-3.5906642728904847,4052.7472527472523,1856.4102564102564,1.0,7.609347679034089,131.41730962764174,-7.83206106870229,4.793893129770992,9.31297709923664,-0.3028485757121439,0.2653673163418291,-0.4077961019490255,970.6959706959707,96.95562226379015,33.63177700790111,
1770997698010.2483,0.44565217391304346,-5.641304347826087,-1.0869565217391304,-1.9102333931777378,-9.074805505685218,-3.712746858168761,4045.421245421245,1838.8278388278386,1.0,7.614452910620157,131.32919879316125,-8.061068702290076,4.549618320610687,10.778625954198473,-0.2983508245877061,0.24287856071964017,-0.40929535232383807,969.9633699633699,96.96419535636376,33.63177700790111,
1770997698029.7832,0.32608695652173914,-5.608695652173913,-1.065217391304348,-2.0299222022740873,-9.01735487731897,-3.712746858168761,4073.260073260073,1868.8644688644688,1.0,7.614452910620157,131.32919879316125,-8.213740458015266,4.122137404580153,10.473282442748092,-0.3028485757121439,0.2578710644677661,-0.4032983508245877,1029.3040293040292,96.96133765602133,33.63177700790111,
1770997698049.318,0.3695652173913043,-5.554347826086956,-1.0108695652173914,-2.0179533213644523,-8.92160383004189,-3.6505086774386593,4051.282051282051,1851.2820512820513,1.0,7.614452910620157,131.32919879316125,-7.419847328244274,1.5114503816793892,7.923664122137405,-0.29535232383808097,0.24287856071964017,-0.4017991004497751,1115.018315018315,96.96133765602133,33.63177700790111,
1770997698068.853,0.5434782608695652,-5.510869565217392,-1.0,-1.82884500299222,-8.871334530221423,-3.6026331538001197,4045.421245421245,1838.095238095238,1.0,7.614452910620157,131.32919879316125,-7.083969465648854,-0.8854961832061068,6.7328244274809155,-0.29385307346326833,0.2518740629685157,-0.41079460269865065,1202.197802197802,96.95847995849678,33.63177700790111,
1770997698088.388,0.5760869565217391,-5.478260869565217,-1.0326086956521738,-1.7522441651705565,-8.852184320766009,-3.6361460203470974,4071.7948717948716,1873.260073260073,1.0,7.614452910620157,131.32919879316125,-6.015267175572519,-0.3969465648854962,6.946564885496183,-0.29385307346326833,0.2608695652173913,-0.40629685157421286,1266.6666666666665,96.95562226379015,33.63177700790111,
1770997698107.9229,0.42391304347826086,-5.467391304347826,-1.065217391304348,-1.9126271693596648,-8.82585278276481,-3.6744464392579292,4070.32967032967,1877.6556776556774,1.0,7.619558142206224,131.24120603015078,-5.633587786259541,0.916030534351145,6.259541984732824,-0.29385307346326833,0.27136431784107945,-0.3958020989505247,1284.9816849816848,96.95562226379015,33.63177700790111,
1770997698127.4575,0.3913043478260869,-5.434782608695652,-1.0326086956521738,-1.9772591262716936,-8.804308797127469,-3.6672651107121483,4051.282051282051,1853.4798534798533,1.0,7.619558142206224,131.24120603015078,-4.366412213740458,0.5190839694656488,3.7251908396946565,-0.2983508245877061,0.27586206896551724,-0.41529235382308843,1273.9926739926739,96.95562226379015,33.63177700790111,
1770997698146.9924,0.5108695652173912,-5.467391304347826,-1.0217391304347825,-1.8575703171753442,-8.828246558946738,-3.6672651107121483,4052.7472527472523,1848.3516483516482,1.0,7.619558142206224,131.24120603015078,-3.32824427480916,-0.4580152671755725,0.42748091603053434,-0.29985007496251875,0.2563718140929535,-0.3958020989505247,1232.2344322344322,96.96133765602133,33.63177700790111,
1770997698166.527,0.5108695652173912,-5.423913043478261,-1.0978260869565217,-1.8240574506283662,-8.840215439856372,-3.6624775583482942,4071.7948717948716,1875.4578754578754,1.0,7.624663373792294,131.15333110143956,-2.0610687022900764,-0.38167938931297707,-0.2900763358778626,-0.30134932533733133,0.2353823088455772,-0.39280359820089955,1194.1391941391942,96.95847995849678,33.63177700790111,
1770997698186.0625,0.42391304347826086,-5.380434782608695,-1.1630434782608696,-1.895870736086176,-8.780371035308198,-3.772591262716936,4071.7948717948716,1884.249084249084,1.0,7.624663373792294,131.15333110143956,-0.24427480916030533,-0.015267175572519083,-2.198473282442748,-0.3073463268365817,0.2578710644677661,-0.41079460269865065,1155.3113553113553,96.95562226379015,33.63177700790111,
1770997698205.5972,0.3804347826086956,-5.380434782608695,-1.1630434782608696,-1.9844404548174746,-8.761220825852783,-3.7965290245362056,4049.8168498168498,1849.084249084249,1.0,7.624663373792294,131.15333110143956,1.4961832061068703,1.3587786259541985,-4.9465648854961835,-0.2983508245877061,0.24437781109445278,-0.41079460269865065,1115.7509157509157,96.95847995849678,33.63177700790111,
1770997698225.132,0.43478260869565216,-5.358695652173913,-1.1630434782608696,-1.9628964691801316,-8.718132854578096,-3.7941352483542787,4043.9560439560437,1830.7692307692307,1.0,7.624663373792294,131.15333110143956,2.6412213740458013,3.236641221374046,-8.045801526717558,-0.30134932533733133,0.24437781109445278,-0.41379310344827586,1066.6666666666665,96.96419535636376,33.63177700790111,
1770997698244.667,0.3913043478260869,-5.3478260869565215,-1.1521739130434783,-1.9628964691801316,-8.720526630760023,-3.7773788150807897,4070.32967032967,1865.9340659340658,1.0,7.624663373792294,131.15333110143956,2.7022900763358777,3.66412213740458,-9.725190839694656,-0.3058470764617691,0.2383808095952024,-0.4047976011994003,1021.978021978022,96.96133765602133,33.63177700790111,
1770997698264.2017,0.32608695652173914,-5.380434782608695,-1.184782608695652,-2.0203470975463795,-8.718132854578096,-3.8300418910831837,4070.32967032967,1874.7252747252746,1.0,7.624663373792294,131.15333110143956,2.5343511450381677,2.916030534351145,-11.083969465648854,-0.3118440779610195,0.25337331334332835,-0.3988005997001499,1002.9304029304028,96.96705305952415,33.63177700790111,
1770997698283.7366,0.33695652173913043,-5.445652173913043,-1.2065217391304348,-2.0706163973668463,-8.768402154398563,-3.8324356672651105,4070.32967032967,1877.6556776556774,1.0,7.629768605378362,131.0655737704918,2.1068702290076335,0.6106870229007634,-12.091603053435113,-0.3088455772113943,0.24437781109445278,-0.4047976011994003,1005.8608058608058,96.94990688283065,33.63177700790111,
1770997698303.2715,0.31521739130434784,-5.521739130434782,-1.2717391304347825,-2.0418910831837223,-8.878515858767205,-3.8850987432675046,4052.7472527472523,1854.212454212454,1.0,7.629768605378362,131.0655737704918,2.1068702290076335,-0.3511450381679389,-12.50381679389313,-0.3088455772113943,0.25037481259370314,-0.39430284857571213,1013.9194139194138,96.95847995849678,33.63177700790111,
1770997698322.8064,0.22826086956521738,-5.510869565217392,-1.358695652173913,-2.094554159186116,-8.909634949132256,-3.992818671454219,4043.9560439560437,1832.234432234432,1.0,7.63487383696443,130.9779338014042,2.549618320610687,0.42748091603053434,-12.519083969465647,-0.3103448275862069,0.24137931034482757,-0.40929535232383807,1034.4322344322343,96.95562226379015,33.63177700790111,
1770997698342.3413,0.20652173913043478,-5.434782608695652,-1.315217391304348,-2.1807301017354876,-8.81867145421903,-3.968880909634949,4070.32967032967,1865.9340659340658,1.0,7.639979068550499,130.89041095890408,2.7938931297709924,2.030534351145038,-12.335877862595419,-0.3058470764617691,0.2383808095952024,-0.4122938530734633,1064.4688644688645,96.95562226379015,33.63177700790111,
1770997698361.8762,0.2391304347826087,-5.423913043478261,-1.2065217391304348,-2.1735487731897067,-8.806702573309396,-3.897067624177139,4048.3516483516482,1849.084249084249,1.0,7.645084300136565,130.80300500834724,2.1068702290076335,4.030534351145038,-12.564885496183205,-0.3028485757121439,0.24887556221889054,-0.4122938530734633,1082.051282051282,96.95562226379015,33.63177700790111,
1770997698381.411,0.2826086956521739,-5.380434782608695,-1.2934782608695652,-2.135248354278875,-8.773189706762418,-3.8898862956313582,4043.9560439560437,1831.5018315018315,1.0,7.645084300136565,130.80300500834724,1.3282442748091603,5.068702290076335,-12.091603053435113,-0.3073463268365817,0.25037481259370314,-0.4257871064467766,1087.179487179487,96.96419535636376,33.63177700790111,
1770997698400.9458,0.19565217391304346,-5.369565217391304,-1.2717391304347825,-2.1879114302812686,-8.703770197486534,-3.9233991621783364,4071.7948717948716,1871.7948717948716,1.0,7.645084300136565,130.80300500834724,0.7786259541984732,5.66412213740458,-9.221374045801527,-0.3073463268365817,0.25037481259370314,-0.4047976011994003,1092.3076923076922,96.95562226379015,33.63177700790111,
1770997698420.4807,0.10869565217391304,-5.4021739130434785,-1.1956521739130435,-2.276481149012567,-8.754039497307001,-3.8563734290843805,4071.7948717948716,1882.7838827838827,1.0,7.650189531722634,130.7157157157157,-0.3511450381679389,2.916030534351145,-8.16793893129771,-0.3088455772113943,0.25337331334332835,-0.4047976011994003,1126.007326007326,96.96133765602133,33.63177700790111,
1770997698440.0156,0.15217391304347827,-5.467391304347826,-1.1521739130434783,-2.2573309395571513,-8.813883901855176,-3.8013165769000596,4048.3516483516482,1854.212454212454,1.0,7.645084300136565,130.80300500834724,-1.0534351145038168,1.282442748091603,-6.916030534351145,-0.3103448275862069,0.25487256371814093,-0.41529235382308843,1245.4212454212454,96.96133765602133,33.63177700790111,
1770997698459.5503,0.17391304347826086,-5.510869565217392,-1.1739130434782608,-2.2477558348294435,-8.885697187312987,-3.8013165769000596,4071.7948717948716,1884.9816849816848,1.0,7.650189531722634,130.7157157157157,-1.3282442748091603,1.7709923664122136,-5.908396946564885,-0.3088455772113943,0.24137931034482757,-0.4077961019490255,1450.5494505494505,96.95562226379015,33.63177700790111,
1770997698479.0854,0.20652173913043478,-5.521739130434782,-1.1956521739130435,-2.2309994015559544,-8.91442250149611,-3.8396169958108914,4043.9560439560437,1841.7582417582416,1.0,7.650189531722634,130.7157157157157,-1.450381679389313,4.305343511450381,-3.969465648854962,-0.3043478260869565,0.26836581709145424,-0.416791604197901,1707.6923076923076,96.96133765602133,33.63177700790111,
1770997698498.6204,0.13043478260869565,-5.543478260869565,-1.1739130434782608,-2.264512268102932,-8.9311789347696,-3.8372232196289646,4073.260073260073,1869.5970695970695,1.0,7.650189531722634,130.7157157157157,-1.129770992366412,6.961832061068702,-2.8854961832061066,-0.3058470764617691,0.24137931034482757,-0.4077961019490255,1943.5897435897434,96.96133765602133,33.63177700790111,
1770997698518.155,0.08695652173913043,-5.5,-1.141304347826087,-2.324356672651107,-8.904847396768401,-3.743865948533812,4049.8168498168498,1844.6886446886447,1.0,7.660399994894769,130.54148617127623,0.16793893129770993,8.366412213740457,-1.1908396946564885,-0.3103448275862069,0.24737631184407796,-0.4122938530734633,2084.2490842490843,96.95847995849678,33.63177700790111,
1770997698537.69,0.11956521739130435,-5.5,-1.141304347826087,-2.2860562537402753,-8.89048473967684,-3.763016157989228,4045.421245421245,1835.8974358974358,1.0,7.660399994894769,130.54148617127623,0.8244274809160305,10.213740458015266,-0.7938931297709924,-0.3103448275862069,0.2593703148425787,-0.41529235382308843,2067.399267399267,96.96133765602133,33.63177700790111,
1770997698557.2249,0.16304347826086957,-5.413043478260869,-1.108695652173913,-2.2381807301017353,-8.79473369239976,-3.741472172351885,4071.7948717948716,1872.5274725274724,1.0,7.665505226480837,130.45454545454544,0.916030534351145,11.81679389312977,0.4427480916030534,-0.3148425787106447,0.2518740629685157,-0.4002998500749625,1916.4835164835163,96.96133765602133,33.63177700790111,
1770997698576.7598,0.19565217391304346,-5.576086956521739,-1.1304347826086956,-2.2309994015559544,-8.830640335128665,-3.765409934171155,4070.32967032967,1876.923076923077,1.0,7.665505226480837,130.45454545454544,0.8549618320610687,11.251908396946565,1.5114503816793892,-0.3103448275862069,0.2518740629685157,-0.41829085457271364,1701.8315018315018,96.95562226379015,33.63177700790111,
1770997698596.295,0.31521739130434784,-5.6521739130434785,-1.2065217391304348,-2.154398563734291,-9.060442848593656,-3.803710353081987,4048.3516483516482,1852.0146520146518,1.0,7.665505226480837,130.45454545454544,-1.1755725190839694,7.877862595419847,3.2061068702290076,-0.3118440779610195,0.26836581709145424,-0.4212893553223388,1489.3772893772893,96.95562226379015,33.63177700790111,
1770997698615.8296,0.358695652173913,-5.565217391304348,-1.2065217391304348,-2.087372830640335,-8.988629563135847,-3.8922800718132855,4071.7948717948716,1877.6556776556774,1.0,7.660399994894769,130.54148617127623,-2.4580152671755724,5.603053435114504,5.969465648854961,-0.3088455772113943,0.24287856071964017,-0.41379310344827586,1318.6813186813185,96.96133765602133,33.63177700790111,
1770997698635.3645,0.4782608695652174,-5.467391304347826,-1.108695652173913,-1.9868342309994016,-8.87372830640335,-3.779772591262717,4043.9560439560437,1838.8278388278386,1.0,7.665505226480837,130.45454545454544,-2.5343511450381677,1.0534351145038168,7.007633587786259,-0.31334332833583206,0.24587706146926536,-0.4077961019490255,1189.7435897435896,96.95847995849678,33.63177700790111,
1770997698654.8992,0.4891304347826087,-5.434782608695652,-1.1521739130434783,-1.8479952124476362,-8.861759425493716,-3.7821663674446437,4071.7948717948716,1873.9926739926739,1.0,7.665505226480837,130.45454545454544,-3.0076335877862594,-2.183206106870229,7.49618320610687,-0.30134932533733133,0.24887556221889054,-0.416791604197901,1115.018315018315,96.95562226379015,33.63177700790111,
1770997698674.434,0.3804347826086956,-5.391304347826087,-1.1956521739130435,-1.9413524835427887,-8.823459006582885,-3.8276481149012564,4048.3516483516482,1851.2820512820513,1.0,7.665505226480837,130.45454545454544,-2.9770992366412212,-2.259541984732824,7.114503816793893,-0.3028485757121439,0.24737631184407796,-0.41829085457271364,1099.6336996336995,96.96419535636376,33.63177700790111,
1770997698693.969,0.45652173913043476,-5.380434782608695,-1.2065217391304348,-1.9557151406343507,-8.766008378216636,-3.8300418910831837,4045.421245421245,1838.095238095238,1.0,7.665505226480837,130.45454545454544,-2.5343511450381677,-3.3893129770992365,4.763358778625954,-0.30134932533733133,0.24737631184407796,-0.4212893553223388,1126.007326007326,96.96133765602133,33.63177700790111,
1770997698713.504,0.5,-5.3478260869565215,-1.1521739130434783,-1.8479952124476362,-8.6918013165769,-3.803710353081987,4070.32967032967,1867.3992673992673,1.0,7.665505226480837,130.45454545454544,-1.5419847328244274,-1.5877862595419847,1.6946564885496183,-0.30134932533733133,0.2563718140929535,-0.41079460269865065,1177.2893772893772,96.95276457190144,33.63177700790111,
1770997698733.0388,0.3804347826086956,-5.326086956521739,-1.1195652173913042,-1.9269898264512269,-8.677438659485338,-3.755834829443447,4071.7948717948716,1882.051282051282,1.0,7.665505226480837,130.45454545454544,-1.2519083969465647,2.5801526717557253,-0.42748091603053434,-0.3088455772113943,0.24287856071964017,-0.40629685157421286,1224.1758241758241,96.95847995849678,33.63177700790111,
1770997698752.5735,0.2608695652173913,-5.423913043478261,-1.184782608695652,-2.092160383004189,-8.756433273488929,-3.7941352483542787,4046.8864468864467,1847.6190476190475,1.0,7.665505226480837,130.45454545454544,-0.564885496183206,5.022900763358779,-2.8854961832061066,-0.3028485757121439,0.2593703148425787,-0.41529235382308843,1250.5494505494505,96.95689553822872,33.62172672534361,
1770997698772.1084,0.22826086956521738,-5.510869565217392,-1.2391304347826086,-2.135248354278875,-8.864153201675643,-3.8755236385397964,4058.6080586080584,1854.212454212454,1.0,7.665505226480837,130.45454545454544,0.32061068702290074,5.603053435114504,-4.351145038167939,-0.29535232383808097,0.2338830584707646,-0.41529235382308843,1250.5494505494505,96.95975318945311,33.62172672534361,
1770997698791.6433,0.18478260869565216,-5.554347826086956,-1.1630434782608696,-2.1974865350089767,-8.928785158587672,-3.8372232196289646,4070.32967032967,1872.5274725274724,1.0,7.665505226480837,130.45454545454544,0.5190839694656488,6.824427480916031,-5.587786259541985,-0.3043478260869565,0.2578710644677661,-0.41529235382308843,1238.095238095238,96.95403788982219,33.62172672534361,
1770997698811.1782,0.25,-5.565217391304348,-1.1304347826086956,-2.1759425493716336,-8.92160383004189,-3.786953919808498,4070.32967032967,1876.923076923077,1.0,7.665505226480837,130.45454545454544,0.6106870229007634,7.2824427480916025,-6.381679389312977,-0.3028485757121439,0.2368815592203898,-0.4047976011994003,1194.8717948717947,96.95689553822872,33.62172672534361,
1770997698830.7131,0.2391304347826087,-5.576086956521739,-1.0978260869565217,-2.140035906642729,-8.955116696588869,-3.731897067624177,4048.3516483516482,1852.0146520146518,1.0,7.665505226480837,130.45454545454544,-0.15267175572519084,10.793893129770993,-6.137404580152672,-0.3103448275862069,0.24887556221889054,-0.41379310344827586,1134.065934065934,96.95689553822872,33.62172672534361,
1770997698850.248,0.2608695652173913,-5.619565217391304,-1.065217391304348,-2.135248354278875,-8.971873129862358,-3.7031717534410533,4043.9560439560437,1831.5018315018315,1.0,7.665505226480837,130.45454545454544,-1.0381679389312977,11.938931297709923,-4.748091603053435,-0.3043478260869565,0.2518740629685157,-0.4197901049475262,1077.6556776556777,96.95403788982219,33.62172672534361,
1770997698869.783,0.22826086956521738,-5.641304347826087,-1.0543478260869565,-2.130460801915021,-9.014961101137043,-3.6912028725314183,4071.7948717948716,1872.5274725274724,1.0,7.665505226480837,130.45454545454544,-1.648854961832061,11.526717557251908,-2.6412213740458013,-0.3043478260869565,0.24587706146926536,-0.4077961019490255,1037.3626373626373,96.96261084349531,33.62172672534361,
1770997698889.3176,0.22826086956521738,-5.630434782608695,-1.0217391304347825,-2.154398563734291,-9.024536205864752,-3.6768402154398565,4070.32967032967,1876.923076923077,1.0,7.665505226480837,130.45454545454544,-2.2442748091603053,9.572519083969466,-0.2748091603053435,-0.30134932533733133,0.25037481259370314,-0.4017991004497751,1030.03663003663,96.96261084349531,33.62172672534361,
1770997698908.8523,0.30434782608695654,-5.5978260869565215,-1.0108695652173914,-2.116098144823459,-8.998204667863554,-3.68162776780371,4045.421245421245,1844.6886446886447,1.0,7.670610458066905,130.36772046589016,-2.213740458015267,6.870229007633587,1.1603053435114503,-0.2983508245877061,0.272863568215892,-0.41529235382308843,1043.956043956044,96.95689553822872,33.62172672534361,
1770997698928.3877,0.33695652173913043,-5.554347826086956,-1.0,-2.0777977259126272,-8.947935368043089,-3.583482944344704,4070.32967032967,1869.5970695970695,1.0,7.670610458066905,130.36772046589016,-2.687022900763359,5.9541984732824424,2.1526717557251906,-0.3043478260869565,0.239880059970015,-0.40929535232383807,1053.4798534798533,96.95403788982219,33.62172672534361,
1770997698947.9224,0.34782608695652173,-5.554347826086956,-0.9347826086956521,-2.0275284260921604,-8.947935368043089,-3.559545182525434,4043.9560439560437,1835.8974358974358,1.0,7.670610458066905,130.36772046589016,-3.3587786259541983,5.0534351145038165,2.4122137404580153,-0.3028485757121439,0.2353823088455772,-0.40629685157421286,1057.8754578754579,96.95975318945311,33.62172672534361,
1770997698967.4573,0.33695652173913043,-5.5978260869565215,-0.8913043478260869,-2.049072411729503,-8.998204667863554,-3.523638539796529,4070.32967032967,1867.3992673992673,1.0,7.670610458066905,130.36772046589016,-3.9083969465648853,4.870229007633587,2.396946564885496,-0.29985007496251875,0.2563718140929535,-0.41079460269865065,1061.5384615384614,96.95689553822872,33.62172672534361,
1770997698986.9922,0.358695652173913,-5.565217391304348,-0.8804347826086957,-2.037103530819868,-8.959904248952723,-3.516457211250748,4048.3516483516482,1849.084249084249,1.0,7.670610458066905,130.36772046589016,-4.580152671755725,3.969465648854962,3.2519083969465647,-0.3043478260869565,0.25337331334332835,-0.4122938530734633,1073.9926739926739,96.95689553822872,33.62172672534361,
1770997699006.5269,0.3913043478260869,-5.5978260869565215,-0.9347826086956521,-1.9892280071813284,-8.950329144225014,-3.5547576301615798,4073.260073260073,1871.7948717948716,1.0,7.670610458066905,130.36772046589016,-3.9541984732824424,4.290076335877862,3.3740458015267176,-0.29985007496251875,0.25337331334332835,-0.4077961019490255,1106.227106227106,96.95689553822872,33.62172672534361,
1770997699026.0618,0.33695652173913043,-5.521739130434782,-0.9456521739130435,-2.0155595451825254,-8.909634949132256,-3.5858767205266306,4071.7948717948716,1882.7838827838827,1.0,7.670610458066905,130.36772046589016,-3.49618320610687,4.961832061068702,3.4198473282442747,-0.2983508245877061,0.2578710644677661,-0.40629685157421286,1115.7509157509157,96.95403788982219,33.62172672534361,
1770997699045.5967,0.34782608695652173,-5.489130434782608,-0.858695652173913,-2.0466786355475763,-8.868940754039498,-3.547576301615799,4070.32967032967,1879.8534798534797,1.0,7.670610458066905,130.36772046589016,-2.717557251908397,5.435114503816794,2.946564885496183,-0.29685157421289354,0.26836581709145424,-0.40629685157421286,1109.1575091575091,96.95403788982219,33.62172672534361,
1770997699065.1316,0.40217391304347827,-5.467391304347826,-0.7934782608695652,-1.9964093357271095,-8.845002992220227,-3.461400359066427,4046.8864468864467,1846.8864468864467,1.0,7.675715689652972,130.28101097439307,-2.3206106870229006,4.6106870229007635,1.83206106870229,-0.3028485757121439,0.26686656671664166,-0.4122938530734633,1106.9597069597069,96.95975318945311,33.62172672534361,
1770997699084.6665,0.44565217391304346,-5.478260869565217,-0.7934782608695652,-1.9461400359066428,-8.823459006582885,-3.4087372830640335,4074.7252747252746,1876.923076923077,1.0,7.670610458066905,130.36772046589016,-3.0839694656488548,3.6946564885496183,2.1068702290076335,-0.29535232383808097,0.2368815592203898,-0.4032983508245877,1153.8461538461538,96.95975318945311,33.62172672534361,
1770997699104.2014,0.40217391304347827,-5.554347826086956,-0.8478260869565217,-1.9605026929982046,-8.91442250149611,-3.4470377019748653,4046.8864468864467,1846.153846153846,1.0,7.675715689652972,130.28101097439307,-3.847328244274809,2.7022900763358777,2.198473282442748,-0.29985007496251875,0.25337331334332835,-0.41529235382308843,1290.8424908424909,96.95689553822872,33.62172672534361,
1770997699123.736,0.34782608695652173,-5.5978260869565215,-0.9239130434782609,-2.0347097546379413,-8.952722920406941,-3.523638539796529,4074.7252747252746,1876.923076923077,1.0,7.675715689652972,130.28101097439307,-3.7557251908396947,2.900763358778626,2.259541984732824,-0.29535232383808097,0.24587706146926536,-0.3988005997001499,1520.8791208791208,96.95689553822872,33.62172672534361,
1770997699143.271,0.3695652173913043,-5.58695652173913,-0.9021739130434783,-2.0083782166367445,-8.983842010771992,-3.535607420706164,4051.282051282051,1853.4798534798533,1.0,7.675715689652972,130.28101097439307,-2.900763358778626,2.6412213740458013,1.2519083969465647,-0.3028485757121439,0.2383808095952024,-0.41079460269865065,1781.6849816849815,96.95975318945311,33.62172672534361,
1770997699162.806,0.41304347826086957,-5.58695652173913,-0.8260869565217391,-1.9964093357271095,-8.995810891681627,-3.4637941352483543,4049.8168498168498,1840.2930402930401,1.0,7.675715689652972,130.28101097439307,-2.564885496183206,2.5038167938931295,0.3511450381679389,-0.2983508245877061,0.2518740629685157,-0.4032983508245877,1997.8021978021977,96.95689553822872,33.62172672534361,
1770997699182.3408,0.40217391304347827,-5.58695652173913,-0.858695652173913,-1.9868342309994016,-8.967085577498503,-3.466187911430281,4074.7252747252746,1874.7252747252746,1.0,7.675715689652972,130.28101097439307,-1.648854961832061,2.198473282442748,0.07633587786259542,-0.29535232383808097,0.25037481259370314,-0.41079460269865065,2104.7619047619046,96.95403788982219,33.62172672534361,
1770997699201.8755,0.34782608695652173,-5.532608695652174,-0.8478260869565217,-2.049072411729503,-8.935966487133452,-3.487731897067624,4073.260073260073,1877.6556776556774,1.0,7.675715689652972,130.28101097439307,-2.1221374045801524,2.1374045801526718,0.6870229007633587,-0.29385307346326833,0.2578710644677661,-0.41079460269865065,2077.6556776556777,96.95403788982219,33.62172672534361,
1770997699221.4106,0.358695652173913,-5.521739130434782,-0.8478260869565217,-2.037103530819868,-8.926391382405745,-3.4350688210652303,4049.8168498168498,1846.8864468864467,1.0,7.675715689652972,130.28101097439307,-2.5038167938931295,0.7633587786259541,-0.3969465648854962,-0.29385307346326833,0.2653673163418291,-0.3958020989505247,1925.2747252747251,96.96261084349531,33.62172672534361,
1770997699240.9456,0.3695652173913043,-5.543478260869565,-0.9239130434782609,-2.0035906642728905,-8.926391382405745,-3.502094554159186,4067.399267399267,1863.003663003663,1.0,7.675715689652972,130.28101097439307,-2.7022900763358777,-0.8549618320610687,-0.12213740458015267,-0.30134932533733133,0.2623688155922039,-0.41079460269865065,1715.7509157509157,96.95689553822872,33.62172672534361,
1770997699260.4802,0.33695652173913043,-5.565217391304348,-0.9347826086956521,-2.0466786355475763,-8.955116696588869,-3.6002393776181925,4074.7252747252746,1880.5860805860805,1.0,7.675715689652972,130.28101097439307,-2.8244274809160306,-0.8244274809160305,0.21374045801526717,-0.30134932533733133,0.25337331334332835,-0.39730134932533734,1518.6813186813185,96.95118024423346,33.62172672534361,
1770997699612.0166,0.06521739130434782,-5.6521739130434785,-0.9130434782608695,-2.3530819868342308,-9.026929982046678,-3.5667265110712147,4067.399267399267,1868.8644688644688,1.0,7.675715689652972,130.28101097439307,-3.2671755725190836,0.2900763358778626,-0.2595419847328244,-0.2983508245877061,0.24737631184407796,-0.42278860569715143,1089.3772893772893,96.95403788982219,33.62172672534361,
1770997699807.3652,0.25,-5.695652173913043,-0.8043478260869565,-2.166367444643926,-9.093955715140634,-3.4374625972471575,4076.1904761904757,1877.6556776556774,1.0,7.68082092123904,130.19441674975073,-4.6106870229007635,2.2900763358778624,-2.687022900763359,-0.3058470764617691,0.26836581709145424,-0.4032983508245877,2038.0952380952378,96.95403788982219,33.62172672534361,
1770997699826.9917,0.30434782608695654,-5.673913043478261,-0.7608695652173912,-2.130460801915021,-9.077199281867145,-3.3824057450628366,4073.260073260073,1879.120879120879,1.0,7.675715689652972,130.28101097439307,-5.007633587786259,3.1755725190839694,-2.916030534351145,-0.29535232383808097,0.2563718140929535,-0.4212893553223388,2116.4835164835163,96.95403788982219,33.62172672534361,
1770997699865.9695,0.33695652173913043,-5.760869565217392,-0.8152173913043478,-2.116098144823459,-9.07241172950329,-3.3967684021543985,4049.8168498168498,1849.084249084249,1.0,7.675715689652972,130.28101097439307,-5.32824427480916,2.1068702290076335,-2.748091603053435,-0.30134932533733133,0.24287856071964017,-0.41829085457271364,1904.7619047619046,96.95403788982219,33.62172672534361,
1770997699885.5962,0.33695652173913043,-5.782608695652174,-0.8260869565217391,-2.0299222022740873,-9.20885697187313,-3.4159186116098144,4074.7252747252746,1876.923076923077,1.0,7.68082092123904,130.19441674975073,-4.427480916030534,1.3893129770992365,-2.427480916030534,-0.29685157421289354,0.24587706146926536,-0.4197901049475262,1711.3553113553112,96.95403788982219,33.62172672534361,
1770997699905.131,0.3804347826086956,-5.695652173913043,-0.7717391304347826,-2.0323159784560145,-9.117893476959903,-3.4254937163375225,4074.7252747252746,1884.9816849816848,1.0,7.68082092123904,130.19441674975073,-3.2213740458015265,-1.1908396946564885,-2.3053435114503817,-0.29235382308845576,0.24587706146926536,-0.4212893553223388,1524.5421245421244,96.95118024423346,33.62172672534361,
1770997699924.666,0.5,-5.641304347826087,-0.7391304347826086,-1.917414721723519,-9.081986834231,-3.336923997606224,4051.282051282051,1855.6776556776556,1.0,7.675715689652972,130.28101097439307,-2.0610687022900764,-1.8473282442748091,-2.0610687022900764,-0.2983508245877061,0.2563718140929535,-0.41829085457271364,1353.8461538461538,96.95403788982219,33.62172672534361,
1770997699944.201,0.40217391304347827,-5.532608695652174,-0.8260869565217391,-1.8910831837223219,-8.950329144225014,-3.3895870736086176,4048.3516483516482,1846.153846153846,1.0,7.675715689652972,130.28101097439307,-1.5725190839694656,-1.7099236641221374,-1.8931297709923662,-0.3028485757121439,0.2578710644677661,-0.4302848575712144,1211.7216117216117,96.95689553822872,33.62172672534361,
1770997699963.7358,0.2826086956521739,-5.5,-0.7608695652173912,-2.068222621184919,-8.892878515858767,-3.4326750448833034,4071.7948717948716,1875.4578754578754,1.0,7.68082092123904,130.19441674975073,-1.114503816793893,-4.412213740458015,-4.091603053435114,-0.3028485757121439,0.2623688155922039,-0.41829085457271364,1128.937728937729,96.95403788982219,33.62172672534361,
1770997699983.2708,0.2608695652173913,-5.478260869565217,-0.7934782608695652,-2.1496110113704368,-8.852184320766009,-3.3800119688809094,4076.1904761904757,1885.7142857142856,1.0,7.675715689652972,130.28101097439307,-1.099236641221374,-5.7251908396946565,-6.961832061068702,-0.29685157421289354,0.23088455772113942,-0.42278860569715143,1115.7509157509157,96.95975318945311,33.62172672534361,
1770997700002.8054,0.32608695652173914,-5.478260869565217,-0.7717391304347826,-2.0777977259126272,-8.864153201675643,-3.3991621783363253,4048.3516483516482,1854.9450549450548,1.0,7.68082092123904,130.19441674975073,-0.13740458015267176,-5.740458015267175,-8.244274809160306,-0.29535232383808097,0.2383808095952024,-0.4122938530734633,1145.054945054945,96.95403788982219,33.62172672534361,
1770997700022.3403,0.2391304347826087,-5.532608695652174,-0.7826086956521738,-2.104129263913824,-8.902453620586474,-3.3967684021543985,4068.8644688644686,1871.0622710622708,1.0,7.675715689652972,130.28101097439307,0.10687022900763359,-0.7786259541984732,-9.007633587786259,-0.3043478260869565,0.239880059970015,-0.416791604197901,1208.7912087912086,96.95975318945311,33.62172672534361,
1770997700041.8752,0.18478260869565216,-5.543478260869565,-0.8260869565217391,-2.2286056253740276,-8.916816277678038,-3.4111310592459603,4046.8864468864467,1844.6886446886447,1.0,7.68082092123904,130.19441674975073,0.13740458015267176,2.763358778625954,-10.839694656488549,-0.3088455772113943,0.24287856071964017,-0.4212893553223388,1271.062271062271,96.95403788982219,33.62172672534361,
1770997700061.4102,0.15217391304347827,-5.543478260869565,-0.8152173913043478,-2.2309994015559544,-8.91442250149611,-3.4446439257929384,4074.7252747252746,1875.4578754578754,1.0,7.68082092123904,130.19441674975073,0.9923664122137404,3.801526717557252,-11.358778625954198,-0.29685157421289354,0.2518740629685157,-0.4257871064467766,1315.018315018315,96.95689553822872,33.62172672534361,
1770997700080.945,0.09782608695652173,-5.510869565217392,-0.7934782608695652,-2.2908438061041294,-8.868940754039498,-3.4135248354278875,4052.7472527472523,1852.7472527472526,1.0,7.675715689652972,130.28101097439307,0.3511450381679389,3.66412213740458,-11.435114503816793,-0.3028485757121439,0.24437781109445278,-0.41379310344827586,1335.5311355311355,96.95403788982219,33.62172672534361,
1770997700100.48,0.11956521739130435,-5.543478260869565,-0.7282608695652174,-2.2716935966487135,-8.897666068222621,-3.3752244165170557,4076.1904761904757,1879.8534798534797,1.0,7.675715689652972,130.28101097439307,-0.061068702290076333,2.9923664122137406,-10.67175572519084,-0.3103448275862069,0.2368815592203898,-0.4197901049475262,1326.7399267399267,96.94832260146256,33.62172672534361,
1770997700120.015,0.16304347826086957,-5.5978260869565215,-0.7282608695652174,-2.2549371633752244,-8.979054458408138,-3.3345302214242967,4074.7252747252746,1885.7142857142856,1.0,7.68082092123904,130.19441674975073,-1.3129770992366412,3.068702290076336,-8.610687022900763,-0.29535232383808097,0.2578710644677661,-0.424287856071964,1277.6556776556777,96.95689553822872,33.62172672534361,
1770997700139.5496,0.14130434782608695,-5.695652173913043,-0.7826086956521738,-2.2549371633752244,-9.06523040095751,-3.3919808497905444,4068.8644688644686,1879.120879120879,1.0,7.68082092123904,130.19441674975073,-2.519083969465649,3.32824427480916,-6.122137404580153,-0.29985007496251875,0.2578710644677661,-0.42728635682158916,1230.03663003663,96.95689553822872,33.62172672534361,
1770997700159.0845,0.07608695652173914,-5.75,-0.8043478260869565,-2.341113105924596,-9.141831238779174,-3.4278874925194494,4043.9560439560437,1838.8278388278386,1.0,7.68082092123904,130.19441674975073,-2.687022900763359,2.427480916030534,-3.633587786259542,-0.3028485757121439,0.23238380809595202,-0.41829085457271364,1207.3260073260074,96.95689553822872,33.62172672534361,
1770997700178.6194,0.11956521739130435,-5.771739130434782,-0.8043478260869565,-2.3052064631956912,-9.175344105326152,-3.4063435068821066,4068.8644688644686,1866.6666666666665,1.0,7.68082092123904,130.19441674975073,-3.068702290076336,0.7633587786259541,-2.213740458015267,-0.3073463268365817,0.24437781109445278,-0.4302848575712144,1198.5347985347985,96.95975318945311,33.62172672534361,
1770997700198.1543,0.19565217391304346,-5.728260869565217,-0.7717391304347826,-2.2070616397366845,-9.132256134051467,-3.3943746259724716,4070.32967032967,1876.1904761904761,1.0,7.675715689652972,130.28101097439307,-3.633587786259542,0.8091603053435115,-1.129770992366412,-0.3103448275862069,0.24887556221889054,-0.4197901049475262,1188.278388278388,96.95118024423346,33.62172672534361,
1770997700217.6892,0.2717391304347826,-5.630434782608695,-0.717391304347826,-2.1496110113704368,-9.026929982046678,-3.3417115499700776,4071.7948717948716,1884.249084249084,1.0,7.675715689652972,130.28101097439307,-4.1679389312977095,0.3053435114503817,-0.3969465648854962,-0.3088455772113943,0.24737631184407796,-0.42278860569715143,1183.150183150183,96.95975318945311,33.62172672534361,
1770997700237.224,0.32608695652173914,-5.576086956521739,-0.6956521739130435,-2.056253740275284,-8.964691801316576,-3.293836026331538,4046.8864468864467,1848.3516483516482,1.0,7.68082092123904,130.19441674975073,-4.748091603053435,0.549618320610687,-0.15267175572519084,-0.29985007496251875,0.2578710644677661,-0.4212893553223388,1181.6849816849815,96.95689553822872,33.62172672534361,
1770997700256.7588,0.40217391304347827,-5.630434782608695,-0.717391304347826,-2.0179533213644523,-8.991023339317774,-3.293836026331538,4071.7948717948716,1876.923076923077,1.0,7.68082092123904,130.19441674975073,-5.038167938931298,0.9618320610687022,0.41221374045801523,-0.3148425787106447,0.2638680659670165,-0.42278860569715143,1200.0,96.95975318945311,33.62172672534361,
1770997700276.2937,0.41304347826086957,-5.717391304347826,-0.7608695652173912,-1.9485338120885696,-9.070017953321365,-3.3488928785158585,4071.7948717948716,1884.249084249084,1.0,7.68082092123904,130.19441674975073,-4.931297709923664,1.0381679389312977,1.083969465648855,-0.3043478260869565,0.22938530734632684,-0.41829085457271364,1228.5714285714284,96.95403788982219,33.62172672534361,
1770997700295.8286,0.41304347826086957,-5.663043478260869,-0.7826086956521738,-1.9724715739078396,-9.079593058049072,-3.3847995212447635,4070.32967032967,1880.5860805860805,1.0,7.68082092123904,130.19441674975073,-4.519083969465648,0.9770992366412213,1.129770992366412,-0.3073463268365817,0.23088455772113942,-0.41379310344827586,1244.6886446886447,96.95975318945311,33.62172672534361,
1770997700315.3635,0.46739130434782605,-5.728260869565217,-0.7934782608695652,-1.9245960502692998,-9.103530819868341,-3.3895870736086176,4043.9560439560437,1840.2930402930401,1.0,7.68082092123904,130.19441674975073,-3.6946564885496183,1.7404580152671756,-0.015267175572519083,-0.30134932533733133,0.24587706146926536,-0.42278860569715143,1249.084249084249,96.95403788982219,33.62172672534361,
1770997700334.8984,0.5217391304347826,-5.695652173913043,-0.8152173913043478,-1.8456014362657092,-9.11310592459605,-3.4398563734290843,4070.32967032967,1868.131868131868,1.0,7.68082092123904,130.19441674975073,-3.7862595419847325,2.1068702290076335,-0.04580152671755725,-0.31334332833583206,0.239880059970015,-0.4287856071964018,1247.6190476190475,96.95689553822872,33.62172672534361,
1770997700354.433,0.5108695652173912,-5.684782608695652,-0.7934782608695652,-1.85278276481149,-9.122681029323758,-3.454219030520646,4070.32967032967,1876.1904761904761,1.0,7.675715689652972,130.28101097439307,-4.2748091603053435,2.778625954198473,-0.7633587786259541,-0.3058470764617691,0.24437781109445278,-0.4212893553223388,1246.153846153846,96.95689553822872,33.62172672534361,
1770997700373.968,0.5543478260869565,-5.641304347826087,-0.7608695652173912,-1.850388988629563,-9.048473967684021,-3.3967684021543985,4071.7948717948716,1884.249084249084,1.0,7.68082092123904,130.19441674975073,-4.961832061068702,-0.0916030534351145,-1.618320610687023,-0.3148425787106447,0.2518740629685157,-0.4212893553223388,1256.4102564102564,96.95118024423346,33.62172672534361,
1770997700393.503,0.6521739130434783,-5.641304347826087,-0.7608695652173912,-1.7570317175344106,-9.019748653500898,-3.3800119688809094,4048.3516483516482,1854.212454212454,1.0,7.6859261528251075,130.10793756227167,-5.419847328244274,-2.900763358778626,-1.3740458015267174,-0.29985007496251875,0.2518740629685157,-0.424287856071964,1322.3443223443223,96.95975318945311,33.62172672534361,
1770997700413.0378,0.6304347826086957,-5.673913043478261,-0.8478260869565217,-1.6947935368043088,-9.06523040095751,-3.442250149611011,4073.260073260073,1873.260073260073,1.0,7.6859261528251075,130.10793756227167,-5.786259541984733,-3.0076335877862594,-1.1603053435114503,-0.3058470764617691,0.27136431784107945,-0.42728635682158916,1487.179487179487,96.95975318945311,33.62172672534361,
1770997700432.5728,0.5760869565217391,-5.673913043478261,-0.8695652173913043,-1.7666068222621185,-9.060442848593656,-3.478156792339916,4071.7948717948716,1883.5164835164833,1.0,7.6859261528251075,130.10793756227167,-5.450381679389313,-1.7404580152671756,-1.4198473282442747,-0.31634182908545727,0.2623688155922039,-0.43178410794602695,1738.4615384615383,96.95975318945311,33.62172672534361,
1770997700452.1077,0.5760869565217391,-5.641304347826087,-0.8478260869565217,-1.7737881508078994,-9.053261520047876,-3.4566128067025734,4071.7948717948716,1893.040293040293,1.0,7.6859261528251075,130.10793756227167,-4.702290076335878,-0.9923664122137404,-2.8244274809160306,-0.30134932533733133,0.23088455772113942,-0.41529235382308843,2004.3956043956043,96.95689553822872,33.62172672534361,
1770997700471.6426,0.5652173913043478,-5.641304347826087,-0.8369565217391304,-1.7953321364452424,-9.050867743865949,-3.4518252543387193,4045.421245421245,1849.8168498168498,1.0,7.691031384411176,130.0215731828742,-4.473282442748092,-1.2519083969465647,-3.3435114503816794,-0.30134932533733133,0.22788605697151423,-0.41379310344827586,2199.267399267399,96.95689553822872,33.62172672534361,
1770997700491.1775,0.45652173913043476,-5.619565217391304,-0.9239130434782609,-1.893476959904249,-9.04129263913824,-3.509275882704967,4070.32967032967,1871.0622710622708,1.0,7.6859261528251075,130.10793756227167,-4.366412213740458,-1.0229007633587786,-3.5877862595419847,-0.31334332833583206,0.2368815592203898,-0.41379310344827586,2249.8168498168498,96.95689553822872,33.62172672534361,
1770997700510.7122,0.34782608695652173,-5.630434782608695,-0.8804347826086957,-2.0203470975463795,-9.036505086774387,-3.516457211250748,4070.32967032967,1876.923076923077,1.0,7.6859261528251075,130.10793756227167,-4.458015267175572,-1.2366412213740459,-4.183206106870228,-0.3043478260869565,0.24587706146926536,-0.41829085457271364,2153.846153846154,96.95975318945311,33.62172672534361,
1770997700530.247,0.3804347826086956,-5.641304347826087,-0.8804347826086957,-2.0323159784560145,-9.036505086774387,-3.473369239976062,4071.7948717948716,1884.9816849816848,1.0,7.6859261528251075,130.10793756227167,-4.442748091603053,-0.5038167938931297,-4.961832061068702,-0.3088455772113943,0.25037481259370314,-0.4122938530734633,1960.4395604395604,96.95403788982219,33.62172672534361,
1770997700549.782,0.3913043478260869,-5.6521739130434785,-0.8369565217391304,-1.9892280071813284,-9.038898862956314,-3.4637941352483543,4046.8864468864467,1848.3516483516482,1.0,7.6859261528251075,130.10793756227167,-4.687022900763359,1.1755725190839694,-4.67175572519084,-0.3073463268365817,0.2608695652173913,-0.416791604197901,1715.7509157509157,96.95689553822872,33.62172672534361,
1770997700569.317,0.32608695652173914,-5.6521739130434785,-0.8369565217391304,-2.044284859365649,-9.010173548773189,-3.454219030520646,4045.421245421245,1836.6300366300366,1.0,7.6859261528251075,130.10793756227167,-4.259541984732825,2.091603053435114,-3.7557251908396947,-0.3043478260869565,0.2608695652173913,-0.43178410794602695,1484.9816849816848,96.95975318945311,33.62172672534361,
1770997700588.8518,0.2934782608695652,-5.641304347826087,-0.8260869565217391,-2.094554159186116,-9.043686415320167,-3.449431478156792,4071.7948717948716,1873.260073260073,1.0,7.6859261528251075,130.10793756227167,-4.488549618320611,2.4122137404580153,-3.2671755725190836,-0.3058470764617691,0.2623688155922039,-0.43628185907046474,1290.10989010989,96.95403788982219,33.62172672534361,
1770997700608.3867,0.31521739130434784,-5.663043478260869,-0.7826086956521738,-2.0658288450029922,-9.050867743865949,-3.442250149611011,4070.32967032967,1877.6556776556774,1.0,7.6859261528251075,130.10793756227167,-4.595419847328244,1.816793893129771,-3.0839694656488548,-0.30134932533733133,0.2563718140929535,-0.42278860569715143,1139.9267399267399,96.94832260146256,33.62172672534361,
1770997700627.9214,0.358695652173913,-5.673913043478261,-0.7826086956521738,-2.049072411729503,-9.053261520047876,-3.4039497307001794,4043.9560439560437,1838.8278388278386,1.0,7.6859261528251075,130.10793756227167,-4.763358778625954,2.610687022900763,-3.3893129770992365,-0.3043478260869565,0.2518740629685157,-0.4197901049475262,1042.4908424908424,96.95975318945311,33.62172672534361,
1770997700647.4563,0.31521739130434784,-5.684782608695652,-0.7934782608695652,-2.0418910831837223,-9.077199281867145,-3.4135248354278875,4070.32967032967,1868.131868131868,1.0,7.6859261528251075,130.10793756227167,-5.083969465648854,2.6717557251908395,-3.3435114503816794,-0.3073463268365817,0.24587706146926536,-0.42278860569715143,1021.2454212454212,96.95403788982219,33.62172672534361,
1770997700666.9912,0.3695652173913043,-5.684782608695652,-0.8152173913043478,-2.0394973070017954,-9.096349491322561,-3.4398563734290843,4042.490842490842,1841.7582417582416,1.0,7.6859261528251075,130.10793756227167,-5.114503816793893,2.1068702290076335,-2.8854961832061066,-0.3058470764617691,0.24437781109445278,-0.4122938530734633,1073.260073260073,96.95689553822872,33.62172672534361,
1770997700686.526,0.41304347826086957,-5.6521739130434785,-0.7826086956521738,-1.9916217833632555,-9.050867743865949,-3.4350688210652303,4070.32967032967,1869.5970695970695,1.0,7.6859261528251075,130.10793756227167,-5.022900763358779,1.4045801526717556,-2.519083969465649,-0.3073463268365817,0.2653673163418291,-0.42728635682158916,1169.230769230769,96.95689553822872,33.62172672534361,
1770997700706.061,0.40217391304347827,-5.630434782608695,-0.8043478260869565,-1.9700777977259125,-9.03411131059246,-3.4015559545182525,4046.8864468864467,1843.956043956044,1.0,7.6859261528251075,130.10793756227167,-4.580152671755725,2.1526717557251906,-1.9389312977099236,-0.3073463268365817,0.239880059970015,-0.4257871064467766,1287.9120879120878,96.95403788982219,33.62172672534361,
1770997700725.596,0.45652173913043476,-5.608695652173913,-0.7717391304347826,-1.9317773788150807,-8.998204667863554,-3.4230999401555953,4043.9560439560437,1830.03663003663,1.0,7.691031384411176,130.0215731828742,-4.33587786259542,2.4580152671755724,-1.5114503816793892,-0.3073463268365817,0.2623688155922039,-0.4212893553223388,1373.6263736263736,96.95403788982219,33.62172672534361,
1770997700745.1306,0.45652173913043476,-5.619565217391304,-0.8152173913043478,-1.8982645122681028,-9.002992220227409,-3.4207061639736684,4071.7948717948716,1871.7948717948716,1.0,7.6859261528251075,130.10793756227167,-4.396946564885496,3.465648854961832,-1.1450381679389312,-0.3028485757121439,0.25337331334332835,-0.4197901049475262,1405.128205128205,96.95403788982219,33.62172672534361,
1770997700764.6655,0.43478260869565216,-5.641304347826087,-0.8478260869565217,-1.905445840813884,-9.019748653500898,-3.4829443447037702,4068.8644688644686,1875.4578754578754,1.0,7.691031384411176,130.0215731828742,-4.9465648854961835,4.152671755725191,-1.5267175572519083,-0.29985007496251875,0.24887556221889054,-0.41529235382308843,1387.5457875457876,96.95975318945311,33.62172672534361,
1770997700784.2004,0.43478260869565216,-5.641304347826087,-0.8369565217391304,-1.9317773788150807,-9.050867743865949,-3.502094554159186,4043.9560439560437,1838.095238095238,1.0,7.691031384411176,130.0215731828742,-5.022900763358779,3.6946564885496183,-1.8931297709923662,-0.3058470764617691,0.25337331334332835,-0.42728635682158916,1344.3223443223442,96.96261084349531,33.62172672534361,
1770997700803.7354,0.4891304347826087,-5.695652173913043,-0.858695652173913,-1.8982645122681028,-9.058049072411729,-3.480550568521843,4070.32967032967,1867.3992673992673,1.0,7.691031384411176,130.0215731828742,-5.145038167938931,3.068702290076336,-2.4885496183206106,-0.3073463268365817,0.25337331334332835,-0.41079460269865065,1288.6446886446886,96.95689553822872,33.62172672534361,
1770997700823.2705,0.5217391304347826,-5.695652173913043,-0.8804347826086957,-1.82884500299222,-9.077199281867145,-3.4709754637941352,4070.32967032967,1875.4578754578754,1.0,7.691031384411176,130.0215731828742,-5.358778625954198,2.5343511450381677,-1.6946564885496183,-0.30134932533733133,0.24137931034482757,-0.41079460269865065,1230.03663003663,96.95975318945311,33.62172672534361,
1770997700842.8052,0.5108695652173912,-5.663043478260869,-0.8804347826086957,-1.8432076600837821,-9.067624177139438,-3.516457211250748,4070.32967032967,1877.6556776556774,1.0,7.6859261528251075,130.10793756227167,-5.969465648854961,2.519083969465649,-1.114503816793893,-0.31634182908545727,0.24287856071964017,-0.40929535232383807,1184.6153846153845,96.96261084349531,33.62172672534361,
1770997700862.34,0.5217391304347826,-5.6521739130434785,-0.8913043478260869,-1.8479952124476362,-9.024536205864752,-3.533213644524237,4046.8864468864467,1846.153846153846,1.0,7.691031384411176,130.0215731828742,-5.816793893129771,2.259541984732824,-1.114503816793893,-0.2983508245877061,0.24437781109445278,-0.4212893553223388,1175.8241758241757,96.95975318945311,33.62172672534361,
1770997700881.8748,0.5760869565217391,-5.619565217391304,-0.858695652173913,-1.8192698982645121,-9.010173548773189,-3.478156792339916,4071.7948717948716,1876.1904761904761,1.0,7.691031384411176,130.0215731828742,-5.847328244274809,1.4961832061068703,-0.9770992366412213,-0.3058470764617691,0.2353823088455772,-0.41379310344827586,1162.6373626373625,96.95975318945311,33.62172672534361,
1770997700901.4097,0.5760869565217391,-5.576086956521739,-0.8913043478260869,-1.7881508078994615,-8.98623578695392,-3.487731897067624,4070.32967032967,1878.3882783882782,1.0,7.691031384411176,130.0215731828742,-6.3969465648854955,1.6335877862595418,-0.9007633587786259,-0.3148425787106447,0.2623688155922039,-0.4212893553223388,1142.857142857143,96.95689553822872,33.62172672534361,
1770997700920.9446,0.5652173913043478,-5.630434782608695,-0.8478260869565217,-1.7809694793536803,-9.012567324955116,-3.492519449431478,4070.32967032967,1879.120879120879,1.0,7.6859261528251075,130.10793756227167,-7.190839694656488,0.549618320610687,-1.2366412213740459,-0.3088455772113943,0.2353823088455772,-0.4077961019490255,1135.5311355311355,96.95975318945311,33.62172672534361,
1770997700940.4795,0.532608695652174,-5.663043478260869,-0.8804347826086957,-1.8168761220825853,-9.067624177139438,-3.514063435068821,4070.32967032967,1879.120879120879,1.0,7.691031384411176,130.0215731828742,-7.480916030534351,-0.549618320610687,-1.8778625954198473,-0.3043478260869565,0.24287856071964017,-0.4212893553223388,1134.7985347985348,96.96261084349531,33.62172672534361,
1770997700960.0144,0.5869565217391304,-5.739130434782608,-0.8695652173913043,-1.7977259126271694,-9.134649910233392,-3.492519449431478,4071.7948717948716,1885.7142857142856,1.0,7.691031384411176,130.0215731828742,-7.2824427480916025,-1.5267175572519083,-2.595419847328244,-0.3088455772113943,0.24737631184407796,-0.41529235382308843,1152.3809523809523,96.95975318945311,33.62172672534361,
1770997700979.5493,0.5869565217391304,-5.706521739130435,-0.8478260869565217,-1.7809694793536803,-9.139437462597247,-3.492519449431478,4043.9560439560437,1841.7582417582416,1.0,7.691031384411176,130.0215731828742,-6.900763358778626,-0.9618320610687022,-2.6259541984732824,-0.3043478260869565,0.24437781109445278,-0.4032983508245877,1168.4981684981685,96.95689553822872,33.62172672534361,
1770997700999.084,0.5869565217391304,-5.673913043478261,-0.9130434782608695,-1.7809694793536803,-9.074805505685218,-3.480550568521843,4071.7948717948716,1874.7252747252746,1.0,7.691031384411176,130.0215731828742,-6.549618320610687,-0.015267175572519083,-2.748091603053435,-0.2983508245877061,0.24887556221889054,-0.416791604197901,1183.150183150183,96.95118024423346,33.62172672534361,
1770997701018.619,0.5434782608695652,-5.608695652173913,-0.9239130434782609,-1.7977259126271694,-8.991023339317774,-3.545182525433872,4046.8864468864467,1845.4212454212452,1.0,7.6859261528251075,130.10793756227167,-6.061068702290076,0.9007633587786259,-2.6412213740458013,-0.3028485757121439,0.2383808095952024,-0.41529235382308843,1200.7326007326008,96.96261084349531,33.62172672534361,
1770997701038.1538,0.5760869565217391,-5.521739130434782,-0.8913043478260869,-1.8001196888090962,-8.907241172950329,-3.526032315978456,4071.7948717948716,1876.1904761904761,1.0,7.691031384411176,130.0215731828742,-5.816793893129771,0.2900763358778626,-2.519083969465649,-0.3073463268365817,0.26836581709145424,-0.40629685157421286,1191.9413919413919,96.95403788982219,33.62172672534361,
1770997701057.6887,0.5652173913043478,-5.554347826086956,-0.858695652173913,-1.7713943746259724,-8.916816277678038,-3.461400359066427,4071.7948717948716,1884.249084249084,1.0,7.691031384411176,130.0215731828742,-5.893129770992366,-0.9618320610687022,-2.778625954198473,-0.3043478260869565,0.2368815592203898,-0.4047976011994003,1173.6263736263736,96.95975318945311,33.62172672534361,
1770997701077.2236,0.6195652173913043,-5.576086956521739,-0.8913043478260869,-1.7307001795332135,-8.940754039497307,-3.497307001795332,4071.7948717948716,1886.4468864468863,1.0,7.691031384411176,130.0215731828742,-6.946564885496183,-2.5801526717557253,-3.114503816793893,-0.3043478260869565,0.24737631184407796,-0.4212893553223388,1186.080586080586,96.95975318945311,33.62172672534361,
1770997701096.7583,0.5543478260869565,-5.641304347826087,-0.9130434782608695,-1.7354877318970676,-8.983842010771992,-3.5308198683423098,4043.9560439560437,1841.7582417582416,1.0,7.6859261528251075,130.10793756227167,-7.2824427480916025,-3.3587786259541983,-3.49618320610687,-0.3058470764617691,0.2563718140929535,-0.416791604197901,1273.260073260073,96.95689553822872,33.62172672534361,
1770997701116.2937,0.532608695652174,-5.663043478260869,-0.9891304347826086,-1.8144823459006583,-9.050867743865949,-3.5547576301615798,4071.7948717948716,1874.7252747252746,1.0,7.691031384411176,130.0215731828742,-7.297709923664121,-2.610687022900763,-3.49618320610687,-0.3118440779610195,0.24737631184407796,-0.41529235382308843,1482.051282051282,96.95403788982219,33.62172672534361,
1770997701135.828,0.532608695652174,-5.663043478260869,-0.967391304347826,-1.8575703171753442,-9.06523040095751,-3.5930580490724116,4042.490842490842,1843.956043956044,1.0,7.691031384411176,130.0215731828742,-6.748091603053435,-1.8015267175572518,-4.045801526717557,-0.3088455772113943,0.2653673163418291,-0.4212893553223388,1777.2893772893772,96.95975318945311,33.62172672534361,
1770997701155.363,0.5434782608695652,-5.641304347826087,-0.967391304347826,-1.8384201077199283,-9.031717534410532,-3.5978456014362656,4070.32967032967,1869.5970695970695,1.0,7.691031384411176,130.0215731828742,-6.0,-1.0534351145038168,-4.396946564885496,-0.3088455772113943,0.2518740629685157,-0.416791604197901,2056.4102564102564,96.95689553822872,33.62172672534361,
1770997701174.898,0.5108695652173912,-5.58695652173913,-0.967391304347826,-1.8360263315380012,-9.036505086774387,-3.576301615798923,4048.3516483516482,1850.5494505494505,1.0,7.6859261528251075,130.10793756227167,-6.030534351145038,-0.564885496183206,-3.633587786259542,-0.3043478260869565,0.26686656671664166,-0.41079460269865065,2218.3150183150183,96.95689553822872,33.62172672534361,
1770997701194.4329,0.5217391304347826,-5.576086956521739,-0.9891304347826086,-1.8479952124476362,-8.974266906044285,-3.6265709156193897,4045.421245421245,1837.3626373626373,1.0,7.691031384411176,130.0215731828742,-6.65648854961832,-0.2595419847328244,-3.236641221374046,-0.3118440779610195,0.2653673163418291,-0.4047976011994003,2215.3846153846152,96.95403788982219,33.62172672534361,
1770997701213.9678,0.5217391304347826,-5.510869565217392,-0.9891304347826086,-1.85278276481149,-8.900059844404549,-3.6002393776181925,4071.7948717948716,1873.260073260073,1.0,7.6859261528251075,130.10793756227167,-6.916030534351145,-1.4198473282442747,-3.282442748091603,-0.3073463268365817,0.2368815592203898,-0.41079460269865065,2071.7948717948716,96.95689553822872,33.62172672534361,
1770997701233.5027,0.5434782608695652,-5.467391304347826,-1.0,-1.8312387791741471,-8.868940754039498,-3.5858767205266306,4070.32967032967,1876.923076923077,1.0,7.691031384411176,130.0215731828742,-7.251908396946565,-1.6946564885496183,-2.5801526717557253,-0.3058470764617691,0.24887556221889054,-0.4197901049475262,1849.084249084249,96.95975318945311,33.62172672534361,
1770997701253.0374,0.532608695652174,-5.445652173913043,-0.9782608695652174,-1.8240574506283662,-8.821065230400958,-3.6098144823459006,4043.9560439560437,1838.095238095238,1.0,7.6859261528251075,130.10793756227167,-7.3893129770992365,-1.7404580152671756,-1.9541984732824427,-0.3148425787106447,0.2563718140929535,-0.41529235382308843,1613.186813186813,96.95975318945311,33.62172672534361,
1770997701272.5725,0.5108695652173912,-5.510869565217392,-0.9891304347826086,-1.8384201077199283,-8.852184320766009,-3.6385397965290243,4074.7252747252746,1873.9926739926739,1.0,7.6859261528251075,130.10793756227167,-7.32824427480916,-0.8854961832061068,-1.450381679389313,-0.3043478260869565,0.2638680659670165,-0.40929535232383807,1401.4652014652013,96.95975318945311,33.62172672534361,
1770997701292.1072,0.4782608695652174,-5.554347826086956,-0.9891304347826086,-1.8982645122681028,-8.93836026331538,-3.6241771394374624,4046.8864468864467,1844.6886446886447,1.0,7.6859261528251075,130.10793756227167,-6.977099236641221,-1.099236641221374,-1.5267175572519083,-0.31334332833583206,0.2698650674662669,-0.4122938530734633,1235.164835164835,96.95975318945311,33.62172672534361,
1770997701311.642,0.46739130434782605,-5.5978260869565215,-1.0,-1.862357869539198,-8.96947935368043,-3.6409335727109515,4074.7252747252746,1876.1904761904761,1.0,7.6859261528251075,130.10793756227167,-7.312977099236641,-1.648854961832061,-2.4885496183206106,-0.3043478260869565,0.24437781109445278,-0.4122938530734633,1113.5531135531135,96.95975318945311,33.62172672534361,
1770997701331.177,0.44565217391304346,-5.554347826086956,-0.967391304347826,-1.9222022740873728,-8.912028725314183,-3.6265709156193897,4049.8168498168498,1846.153846153846,1.0,7.6859261528251075,130.10793756227167,-7.312977099236641,-1.1450381679389312,-2.4580152671755724,-0.3028485757121439,0.27436281859070466,-0.41079460269865065,1054.212454212454,96.95403788982219,33.62172672534361,
1770997701350.712,0.4782608695652174,-5.554347826086956,-1.0326086956521738,-1.9269898264512269,-8.935966487133452,-3.6409335727109515,4048.3516483516482,1843.2234432234432,1.0,7.691031384411176,130.0215731828742,-7.267175572519084,-1.4809160305343512,-2.763358778625954,-0.3103448275862069,0.2353823088455772,-0.40929535232383807,1077.6556776556777,96.95975318945311,33.62172672534361,
1770997701428.7598,0.5,-5.510869565217392,-1.0326086956521738,-1.886295631358468,-8.892878515858767,-3.6792339916217833,4071.7948717948716,1881.3186813186812,1.0,7.691031384411176,130.0215731828742,-6.717557251908397,-1.648854961832061,0.16793893129770993,-0.3088455772113943,0.2518740629685157,-0.40929535232383807,1331.8681318681317,96.95975318945311,33.62172672534361,
1770997701448.3862,0.4891304347826087,-5.543478260869565,-1.0434782608695652,-1.907839616995811,-8.919210053859963,-3.6792339916217833,4073.260073260073,1873.9926739926739,1.0,7.6859261528251075,130.10793756227167,-6.564885496183206,-1.2213740458015268,0.549618320610687,-0.3058470764617691,0.2653673163418291,-0.41529235382308843,1329.6703296703297,96.95689553822872,33.62172672534361,
1770997701467.9211,0.45652173913043476,-5.554347826086956,-1.065217391304348,-1.9222022740873728,-8.935966487133452,-3.707959305804907,4071.7948717948716,1883.5164835164833,1.0,7.6859261528251075,130.10793756227167,-5.786259541984733,0.24427480916030533,0.6870229007633587,-0.30134932533733133,0.24737631184407796,-0.4047976011994003,1298.9010989010987,96.95403788982219,33.62172672534361,
1770997701487.456,0.4891304347826087,-5.554347826086956,-1.0869565217391304,-1.9030520646319569,-8.952722920406941,-3.717534410532615,4049.8168498168498,1848.3516483516482,1.0,7.691031384411176,130.0215731828742,-5.526717557251908,1.0534351145038168,-0.5343511450381679,-0.3028485757121439,0.27136431784107945,-0.40929535232383807,1247.6190476190475,96.95975318945311,33.62172672534361,
1770997701506.9907,0.4891304347826087,-5.532608695652174,-1.065217391304348,-1.893476959904249,-8.928785158587672,-3.6912028725314183,4048.3516483516482,1843.956043956044,1.0,7.691031384411176,130.0215731828742,-5.190839694656488,1.6946564885496183,-1.114503816793893,-0.3058470764617691,0.24137931034482757,-0.4077961019490255,1202.197802197802,96.95118024423346,33.62172672534361,
1770997701526.5256,0.5108695652173912,-5.5,-1.065217391304348,-1.874326750448833,-8.912028725314183,-3.700777977259126,4073.260073260073,1869.5970695970695,1.0,7.691031384411176,130.0215731828742,-5.450381679389313,1.816793893129771,-0.8854961832061068,-0.3103448275862069,0.25487256371814093,-0.40629685157421286,1161.1721611721612,96.95689553822872,33.62172672534361,
1770997701585.0388,0.5108695652173912,-5.565217391304348,-1.076086956521739,-1.871932974266906,-8.955116696588869,-3.724715739078396,4051.282051282051,1855.6776556776556,1.0,7.6859261528251075,130.10793756227167,-5.511450381679389,0.6870229007633587,1.0687022900763359,-0.31334332833583206,0.24887556221889054,-0.4077961019490255,1087.9120879120878,96.95975318945311,33.62172672534361,
1770997701604.6653,0.5543478260869565,-5.565217391304348,-1.0434782608695652,-1.8432076600837821,-8.945541591861161,-3.712746858168761,4073.260073260073,1873.260073260073,1.0,7.691031384411176,130.0215731828742,-5.419847328244274,0.38167938931297707,1.0229007633587786,-0.3043478260869565,0.27436281859070466,-0.4122938530734633,1089.3772893772893,96.96546850035531,33.62172672534361,
1770997701624.2,0.5652173913043478,-5.58695652173913,-1.0326086956521738,-1.8264512268102933,-8.976660682226212,-3.6720526630760024,4074.7252747252746,1884.249084249084,1.0,7.6859261528251075,130.10793756227167,-5.435114503816794,0.12213740458015267,0.9007633587786259,-0.29985007496251875,0.2698650674662669,-0.41079460269865065,1096.7032967032967,96.95403788982219,33.62172672534361,
1770997701643.7349,0.5869565217391304,-5.608695652173913,-1.0434782608695652,-1.8120885697187312,-8.96947935368043,-3.6624775583482942,4051.282051282051,1854.9450549450548,1.0,7.6859261528251075,130.10793756227167,-5.572519083969466,-0.732824427480916,0.4427480916030534,-0.3088455772113943,0.24137931034482757,-0.41379310344827586,1112.087912087912,96.95403788982219,33.62172672534361,
1770997701663.2698,0.5434782608695652,-5.58695652173913,-1.0434782608695652,-1.82884500299222,-9.002992220227409,-3.6983842010771992,4048.3516483516482,1845.4212454212452,1.0,7.6859261528251075,130.10793756227167,-5.816793893129771,0.1984732824427481,0.564885496183206,-0.30134932533733133,0.2578710644677661,-0.416791604197901,1134.7985347985348,96.95689553822872,33.62172672534361,
1770997701682.8047,0.5543478260869565,-5.5978260869565215,-1.0217391304347825,-1.8240574506283662,-9.005385996409336,-3.6720526630760024,4071.7948717948716,1875.4578754578754,1.0,7.6859261528251075,130.10793756227167,-5.343511450381679,-0.47328244274809156,0.549618320610687,-0.3073463268365817,0.2593703148425787,-0.42278860569715143,1158.974358974359,96.95689553822872,33.62172672534361,
1770997701702.3396,0.6304347826086957,-5.619565217391304,-1.0217391304347825,-1.7450628366247756,-9.002992220227409,-3.6624775583482942,4067.399267399267,1871.7948717948716,1.0,7.6859261528251075,130.10793756227167,-4.99236641221374,-0.7633587786259541,-0.2900763358778626,-0.3103448275862069,0.2563718140929535,-0.4017991004497751,1175.0915750915751,96.95975318945311,33.62172672534361,
1770997701721.8745,0.6195652173913043,-5.6521739130434785,-1.0217391304347825,-1.7211250748055056,-9.024536205864752,-3.6624775583482942,4045.421245421245,1843.2234432234432,1.0,7.6859261528251075,130.10793756227167,-5.190839694656488,0.549618320610687,-0.10687022900763359,-0.3058470764617691,0.2608695652173913,-0.4017991004497751,1183.8827838827838,96.95689553822872,33.62172672534361,
1770997701741.4092,0.5869565217391304,-5.5978260869565215,-1.0217391304347825,-1.7618192698982644,-8.993417115499701,-3.68162776780371,4071.7948717948716,1875.4578754578754,1.0,7.6859261528251075,130.10793756227167,-4.580152671755725,0.8396946564885496,-0.7480916030534351,-0.29985007496251875,0.2698650674662669,-0.4122938530734633,1183.8827838827838,96.95689553822872,33.62172672534361,
1770997701760.944,0.6195652173913043,-5.565217391304348,-1.0326086956521738,-1.7402752842609215,-8.957510472770796,-3.6505086774386593,4071.7948717948716,1884.249084249084,1.0,7.6859261528251075,130.10793756227167,-3.7251908396946565,1.450381679389313,-1.099236641221374,-0.3088455772113943,0.2563718140929535,-0.4122938530734633,1173.6263736263736,96.95689553822872,33.62172672534361,
1770997701780.479,0.6739130434782609,-5.565217391304348,-1.0434782608695652,-1.6876122082585279,-8.957510472770796,-3.68162776780371,4070.32967032967,1880.5860805860805,1.0,7.6859261528251075,130.10793756227167,-3.7404580152671754,2.4732824427480917,-1.618320610687023,-0.3088455772113943,0.2773613193403298,-0.41379310344827586,1154.5787545787546,96.95403788982219,33.62172672534361,
1770997701800.014,0.5760869565217391,-5.554347826086956,-1.0108695652173914,-1.7450628366247756,-8.93836026331538,-3.6600837821663674,4048.3516483516482,1852.7472527472526,1.0,7.6859261528251075,130.10793756227167,-3.7404580152671754,1.8931297709923662,-1.6793893129770991,-0.31334332833583206,0.26686656671664166,-0.4002998500749625,1120.14652014652,96.95689553822872,33.62172672534361,
1770997701819.5488,0.6413043478260869,-5.58695652173913,-1.0434782608695652,-1.7307001795332135,-8.964691801316576,-3.6481149012567324,4043.9560439560437,1832.234432234432,1.0,7.6859261528251075,130.10793756227167,-3.7709923664122136,-0.5190839694656488,-2.687022900763359,-0.3103448275862069,0.24437781109445278,-0.40629685157421286,1101.098901098901,96.95975318945311,33.62172672534361,
1770997701839.0835,0.6739130434782609,-5.630434782608695,-1.0543478260869565,-1.656493117893477,-9.000598444045481,-3.6912028725314183,4071.7948717948716,1872.5274725274724,1.0,7.6859261528251075,130.10793756227167,-4.351145038167939,-0.183206106870229,-2.33587786259542,-0.3103448275862069,0.25337331334332835,-0.41829085457271364,1134.065934065934,96.95403788982219,33.62172672534361,
1770997701858.619,0.5869565217391304,-5.608695652173913,-1.065217391304348,-1.7522441651705565,-8.993417115499701,-3.707959305804907,4067.399267399267,1870.3296703296703,1.0,7.6859261528251075,130.10793756227167,-4.580152671755725,-1.6030534351145038,-3.0839694656488548,-0.3043478260869565,0.24887556221889054,-0.4047976011994003,1252.014652014652,96.95118024423346,33.62172672534361,
1770997701878.1533,0.6086956521739131,-5.554347826086956,-1.065217391304348,-1.7402752842609215,-8.971873129862358,-3.6792339916217833,4073.260073260073,1877.6556776556774,1.0,7.6859261528251075,130.10793756227167,-4.091603053435114,-2.381679389312977,-4.076335877862595,-0.3028485757121439,0.25337331334332835,-0.3988005997001499,1480.5860805860805,96.95689553822872,33.62172672534361,
1770997701897.6882,0.7282608695652174,-5.532608695652174,-1.0326086956521738,-1.6517055655296229,-8.91442250149611,-3.6648713345302215,4070.32967032967,1879.120879120879,1.0,7.6859261528251075,130.10793756227167,-4.045801526717557,-2.6717557251908395,-4.458015267175572,-0.3073463268365817,0.27586206896551724,-0.4122938530734633,1764.8351648351647,96.95118024423346,33.62172672534361,
1770997701917.2231,0.6413043478260869,-5.565217391304348,-1.0217391304347825,-1.7019748653500897,-8.92160383004189,-3.6672651107121483,4071.7948717948716,1885.7142857142856,1.0,7.6859261528251075,130.10793756227167,-4.259541984732825,-2.4885496183206106,-3.450381679389313,-0.3118440779610195,0.24887556221889054,-0.4032983508245877,2008.058608058608,96.95975318945311,33.62172672534361,
1770997701936.758,0.5434782608695652,-5.565217391304348,-1.076086956521739,-1.7761819269898265,-8.93836026331538,-3.6864153201675642,4071.7948717948716,1887.179487179487,1.0,7.6859261528251075,130.10793756227167,-4.244274809160305,-2.2900763358778624,-3.66412213740458,-0.3028485757121439,0.24287856071964017,-0.4017991004497751,2133.333333333333,96.95975318945311,33.62172672534361,
1770997701956.293,0.532608695652174,-5.576086956521739,-1.0978260869565217,-1.8240574506283662,-8.981448234590065,-3.722321962896469,4048.3516483516482,1854.9450549450548,1.0,7.6859261528251075,130.10793756227167,-4.229007633587786,-3.6488549618320607,-4.625954198473282,-0.2983508245877061,0.2623688155922039,-0.416791604197901,2115.7509157509157,96.95975318945311,33.62172672534361,
1770997701975.828,0.5434782608695652,-5.576086956521739,-1.0108695652173914,-1.8168761220825853,-8.955116696588869,-3.6792339916217833,4071.7948717948716,1878.3882783882782,1.0,7.6859261528251075,130.10793756227167,-4.244274809160305,-3.5572519083969465,-4.595419847328244,-0.3088455772113943,0.25487256371814093,-0.4002998500749625,1966.3003663003662,96.95975318945311,33.62172672534361,
1770997701995.3623,0.5434782608695652,-5.532608695652174,-1.0978260869565217,-1.8192698982645121,-8.952722920406941,-3.707959305804907,4071.7948717948716,1884.9816849816848,1.0,7.691031384411176,130.0215731828742,-3.7557251908396947,-3.2061068702290076,-3.9083969465648853,-0.3028485757121439,0.25337331334332835,-0.4197901049475262,1745.7875457875457,96.95975318945311,33.62172672534361,
1770997702014.8977,0.44565217391304346,-5.532608695652174,-1.065217391304348,-1.862357869539198,-8.92160383004189,-3.724715739078396,4065.9340659340655,1878.3882783882782,1.0,7.6859261528251075,130.10793756227167,-3.801526717557252,-2.763358778625954,-4.030534351145038,-0.31334332833583206,0.24887556221889054,-0.4122938530734633,1514.2857142857142,96.95403788982219,33.62172672534361,
1770997702034.4324,0.42391304347826086,-5.532608695652174,-1.0326086956521738,-1.9533213644524237,-8.902453620586474,-3.6912028725314183,4071.7948717948716,1884.9816849816848,1.0,7.6859261528251075,130.10793756227167,-3.282442748091603,-3.236641221374046,-4.519083969465648,-0.3058470764617691,0.2608695652173913,-0.41379310344827586,1309.89010989011,96.95689553822872,33.62172672534361,
1770997702053.9673,0.45652173913043476,-5.521739130434782,-1.076086956521739,-1.917414721723519,-8.91442250149611,-3.669658886894075,4070.32967032967,1880.5860805860805,1.0,7.6859261528251075,130.10793756227167,-3.3587786259541983,-3.068702290076336,-4.030534351145038,-0.30134932533733133,0.2518740629685157,-0.41829085457271364,1147.2527472527472,96.95403788982219,33.62172672534361,
1770997702073.5022,0.43478260869565216,-5.532608695652174,-1.0869565217391304,-1.9150209455415919,-8.919210053859963,-3.7151406343506883,4070.32967032967,1879.8534798534797,1.0,7.6859261528251075,130.10793756227167,-3.282442748091603,-1.4351145038167938,-3.8625954198473282,-0.3103448275862069,0.25037481259370314,-0.4017991004497751,1046.1538461538462,96.95403788982219,33.62172672534361,
1770997702093.037,0.34782608695652173,-5.510869565217392,-1.065217391304348,-2.0083782166367445,-8.895272292040694,-3.717534410532615,4068.8644688644686,1878.3882783882782,1.0,7.6859261528251075,130.10793756227167,-3.0534351145038165,-1.0534351145038168,-3.5114503816793894,-0.3058470764617691,0.23238380809595202,-0.41379310344827586,999.9999999999999,96.95403788982219,33.62172672534361,
1770997702112.572,0.3913043478260869,-5.532608695652174,-1.0434782608695652,-2.0203470975463795,-8.900059844404549,-3.68162776780371,4046.8864468864467,1846.8864468864467,1.0,7.6859261528251075,130.10793756227167,-3.2671755725190836,-1.0534351145038168,-3.6030534351145036,-0.3058470764617691,0.24437781109445278,-0.4212893553223388,1008.058608058608,96.95403788982219,33.62172672534361,
1770997702132.1067,0.43478260869565216,-5.532608695652174,-1.0217391304347825,-1.9533213644524237,-8.916816277678038,-3.6529024536205865,4071.7948717948716,1876.1904761904761,1.0,7.6859261528251075,130.10793756227167,-3.6488549618320607,-0.7480916030534351,-3.3587786259541983,-0.3088455772113943,0.24287856071964017,-0.4077961019490255,1060.8058608058607,96.95403788982219,33.62172672534361,
1770997702151.6416,0.3804347826086956,-5.554347826086956,-1.0543478260869565,-1.9844404548174746,-8.93836026331538,-3.669658886894075,4071.7948717948716,1884.249084249084,1.0,7.6859261528251075,130.10793756227167,-3.16030534351145,0.04580152671755725,-2.4427480916030535,-0.3118440779610195,0.24587706146926536,-0.41079460269865065,1130.4029304029302,96.95403788982219,33.62172672534361,
1770997702171.1765,0.33695652173913043,-5.554347826086956,-1.065217391304348,-2.0394973070017954,-8.943147815679234,-3.6768402154398565,4065.9340659340655,1879.120879120879,1.0,7.6859261528251075,130.10793756227167,-3.16030534351145,0.32061068702290074,-2.519083969465649,-0.31784107946026985,0.24887556221889054,-0.4047976011994003,1198.5347985347985,96.95975318945311,33.62172672534361,
1770997702190.7114,0.3804347826086956,-5.532608695652174,-1.0326086956521738,-2.013165769000598,-8.91442250149611,-3.6552962298025133,4073.260073260073,1879.8534798534797,1.0,7.6859261528251075,130.10793756227167,-2.6717557251908395,0.5038167938931297,-2.3664122137404577,-0.31334332833583206,0.2593703148425787,-0.40629685157421286,1242.4908424908424,96.96261084349531,33.62172672534361,
1770997702210.2463,0.41304347826086957,-5.543478260869565,-1.0326086956521738,-1.9413524835427887,-8.926391382405745,-3.6433273488928783,4071.7948717948716,1885.7142857142856,1.0,7.6859261528251075,130.10793756227167,-2.717557251908397,1.2061068702290076,-1.7404580152671756,-0.3118440779610195,0.25337331334332835,-0.40929535232383807,1264.4688644688645,96.95689553822872,33.62172672534361,
1770997702229.7812,0.41304347826086957,-5.543478260869565,-1.0978260869565217,-1.9605026929982046,-8.952722920406941,-3.6983842010771992,4049.8168498168498,1849.084249084249,1.0,7.6859261528251075,130.10793756227167,-2.9770992366412212,2.045801526717557,-1.3282442748091603,-0.3028485757121439,0.24887556221889054,-0.416791604197901,1252.7472527472526,96.95689553822872,33.62172672534361,
1770997702249.316,0.358695652173913,-5.467391304347826,-1.0543478260869565,-1.9988031119090364,-8.847396768402154,-3.6912028725314183,4071.7948717948716,1876.923076923077,1.0,7.6859261528251075,130.10793756227167,-1.984732824427481,2.259541984732824,-1.2519083969465647,-0.3073463268365817,0.24287856071964017,-0.4077961019490255,1216.8498168498168,96.95403788982219,33.62172672534361,
1770997702268.8508,0.41304347826086957,-5.467391304347826,-1.0434782608695652,-1.9461400359066428,-8.845002992220227,-3.65769000598444,4048.3516483516482,1852.0146520146518,1.0,7.6859261528251075,130.10793756227167,-1.8931297709923662,2.33587786259542,-1.7862595419847327,-0.3118440779610195,0.2698650674662669,-0.41079460269865065,1161.904761904762,96.95975318945311,33.62172672534361,
1770997702288.3855,0.45652173913043476,-5.510869565217392,-0.9891304347826086,-1.9317773788150807,-8.871334530221423,-3.6672651107121483,4073.260073260073,1871.7948717948716,1.0,7.6859261528251075,130.10793756227167,-1.5114503816793892,2.6717557251908395,-0.9007633587786259,-0.3088455772113943,0.24437781109445278,-0.4077961019490255,1101.098901098901,96.95689553822872,33.62172672534361,
1770997702307.921,0.3695652173913043,-5.532608695652174,-1.065217391304348,-1.9988031119090364,-8.919210053859963,-3.6983842010771992,4073.260073260073,1877.6556776556774,1.0,7.68082092123904,130.19441674975073,-1.3129770992366412,3.7709923664122136,-0.8854961832061068,-0.3088455772113943,0.2518740629685157,-0.4077961019490255,1046.8864468864467,96.95975318945311,33.62172672534361,
1770997702327.4556,0.358695652173913,-5.510869565217392,-1.0869565217391304,-2.0466786355475763,-8.892878515858767,-3.731897067624177,4064.468864468864,1870.3296703296703,1.0,7.68082092123904,130.19441674975073,-1.1450381679389312,4.061068702290076,-1.114503816793893,-0.3073463268365817,0.2518740629685157,-0.40629685157421286,1016.8498168498168,96.95689553822872,33.62172672534361,
1770997702346.9905,0.358695652173913,-5.5,-1.0326086956521738,-2.0394973070017954,-8.89048473967684,-3.6840215439856374,4071.7948717948716,1882.7838827838827,1.0,7.6859261528251075,130.10793756227167,-0.8396946564885496,4.045801526717557,-1.5114503816793892,-0.3148425787106447,0.2593703148425787,-0.41529235382308843,1002.1978021978022,96.95689553822872,33.62172672534361,
1770997702366.5251,0.40217391304347827,-5.489130434782608,-1.0326086956521738,-1.9820466786355475,-8.871334530221423,-3.6481149012567324,4073.260073260073,1880.5860805860805,1.0,7.68082092123904,130.19441674975073,-0.8091603053435115,4.99236641221374,-1.083969465648855,-0.2983508245877061,0.2593703148425787,-0.4122938530734633,997.069597069597,96.96261084349531,33.62172672534361,
1770997702386.06,0.40217391304347827,-5.510869565217392,-1.0217391304347825,-1.9652902453620587,-8.888090963494912,-3.693596648713345,4071.7948717948716,1885.7142857142856,1.0,7.6859261528251075,130.10793756227167,-1.0076335877862594,5.877862595419847,-0.4427480916030534,-0.3058470764617691,0.27136431784107945,-0.416791604197901,995.6043956043956,96.95118024423346,33.62172672534361,
1770997702405.595,0.3695652173913043,-5.489130434782608,-1.0434782608695652,-1.9988031119090364,-8.892878515858767,-3.6864153201675642,4068.8644688644686,1879.8534798534797,1.0,7.68082092123904,130.19441674975073,-1.129770992366412,6.717557251908397,-0.1984732824427481,-0.3073463268365817,0.2383808095952024,-0.40629685157421286,1005.8608058608058,96.95403788982219,33.62172672534361,
1770997702425.13,0.3804347826086956,-5.478260869565217,-1.0217391304347825,-2.0203470975463795,-8.861759425493716,-3.669658886894075,4048.3516483516482,1853.4798534798533,1.0,7.68082092123904,130.19441674975073,-0.33587786259541985,7.007633587786259,-0.2595419847328244,-0.3028485757121439,0.25487256371814093,-0.42278860569715143,1038.095238095238,96.96261084349531,33.62172672534361,
1770997702444.6648,0.41304347826086957,-5.510869565217392,-0.9782608695652174,-1.9676840215439857,-8.861759425493716,-3.6146020347097547,4073.260073260073,1879.120879120879,1.0,7.6859261528251075,130.10793756227167,-0.5038167938931297,7.374045801526718,0.030534351145038167,-0.3118440779610195,0.24587706146926536,-0.40629685157421286,1078.3882783882784,96.95403788982219,33.62172672534361,
1770997702464.1997,0.3913043478260869,-5.554347826086956,-0.967391304347826,-1.9772591262716936,-8.900059844404549,-3.595451825254339,4071.7948717948716,1885.7142857142856,1.0,7.68082092123904,130.19441674975073,-0.12213740458015267,8.290076335877862,0.6259541984732824,-0.3073463268365817,0.24887556221889054,-0.41529235382308843,1116.4835164835165,96.95403788982219,33.62172672534361,
1770997702483.7346,0.3913043478260869,-5.5978260869565215,-1.0,-1.9652902453620587,-8.952722920406941,-3.571514063435069,4064.468864468864,1872.5274725274724,1.0,7.68082092123904,130.19441674975073,-0.16793893129770993,9.725190839694656,1.3435114503816794,-0.3088455772113943,0.24587706146926536,-0.4032983508245877,1143.5897435897434,96.95403788982219,33.62172672534361,
1770997702503.2693,0.3913043478260869,-5.641304347826087,-1.0543478260869565,-1.9772591262716936,-9.014961101137043,-3.6744464392579292,4043.9560439560437,1837.3626373626373,1.0,7.6859261528251075,130.10793756227167,0.030534351145038167,10.442748091603052,1.1450381679389312,-0.3058470764617691,0.24437781109445278,-0.4197901049475262,1158.974358974359,96.95403788982219,33.62172672534361,
1770997702522.8042,0.3695652173913043,-5.6521739130434785,-1.0326086956521738,-1.9916217833632555,-9.03411131059246,-3.6648713345302215,4071.7948717948716,1873.9926739926739,1.0,7.6859261528251075,130.10793756227167,0.13740458015267176,10.6412213740458,1.2671755725190839,-0.3058470764617691,0.27586206896551724,-0.41379310344827586,1153.8461538461538,96.95403788982219,33.62172672534361,
1770997702542.339,0.42391304347826086,-5.706521739130435,-1.0108695652173914,-1.9509275882704966,-9.101137043686416,-3.6672651107121483,4070.32967032967,1876.923076923077,1.0,7.68082092123904,130.19441674975073,-0.42748091603053434,10.580152671755725,0.6412213740458015,-0.3043478260869565,0.27586206896551724,-0.41529235382308843,1136.9963369963368,96.95975318945311,33.62172672534361,
1770997702561.874,0.45652173913043476,-5.695652173913043,-0.967391304347826,-1.9341711549970078,-9.098743267504489,-3.6385397965290243,4071.7948717948716,1884.249084249084,1.0,7.68082092123904,130.19441674975073,-1.450381679389313,9.908396946564885,1.2519083969465647,-0.3043478260869565,0.2353823088455772,-0.41079460269865065,1123.076923076923,96.95975318945311,33.62172672534361,
1770997702581.409,0.5543478260869565,-5.641304347826087,-1.0217391304347825,-1.8551765409934171,-9.048473967684021,-3.6289646918013165,4046.8864468864467,1848.3516483516482,1.0,7.68082092123904,130.19441674975073,-2.015267175572519,8.748091603053435,2.6259541984732824,-0.3103448275862069,0.25487256371814093,-0.41079460269865065,1120.8791208791208,96.94832260146256,33.62172672534361,
1770997702600.9438,0.5543478260869565,-5.630434782608695,-1.076086956521739,-1.82884500299222,-9.038898862956314,-3.6983842010771992,4071.7948717948716,1876.1904761904761,1.0,7.68082092123904,130.19441674975073,-2.8854961832061066,6.580152671755725,4.152671755725191,-0.3088455772113943,0.24737631184407796,-0.41079460269865065,1127.4725274725274,96.96546850035531,33.62172672534361,
1770997702620.4785,0.5434782608695652,-5.619565217391304,-1.0326086956521738,-1.8216636744464392,-9.007779772591263,-3.6624775583482942,4070.32967032967,1878.3882783882782,1.0,7.68082092123904,130.19441674975073,-2.381679389312977,2.4122137404580153,5.267175572519084,-0.3118440779610195,0.2518740629685157,-0.40929535232383807,1111.3553113553112,96.95689553822872,33.62172672534361,
1770997702640.0134,0.5760869565217391,-5.630434782608695,-0.9565217391304348,-1.7977259126271694,-9.010173548773189,-3.6098144823459006,4064.468864468864,1871.0622710622708,1.0,7.68082092123904,130.19441674975073,-3.2671755725190836,0.21374045801526717,5.038167938931298,-0.3043478260869565,0.2608695652173913,-0.41079460269865065,1098.9010989010987,96.95689553822872,33.62172672534361,
1770997702659.5483,0.6739130434782609,-5.6521739130434785,-0.9239130434782609,-1.6947935368043088,-9.036505086774387,-3.5667265110712147,4071.7948717948716,1883.5164835164833,1.0,7.68082092123904,130.19441674975073,-4.351145038167939,-0.366412213740458,4.33587786259542,-0.3073463268365817,0.25037481259370314,-0.3988005997001499,1087.179487179487,96.95403788982219,33.62172672534361,
1770997702679.0833,0.6956521739130435,-5.663043478260869,-0.9239130434782609,-1.65409934171155,-9.06523040095751,-3.545182525433872,4071.7948717948716,1886.4468864468863,1.0,7.68082092123904,130.19441674975073,-5.679389312977099,0.8854961832061068,3.618320610687023,-0.3058470764617691,0.24437781109445278,-0.4032983508245877,1133.3333333333333,96.95403788982219,33.62172672534361,
1770997702698.6182,0.6086956521739131,-5.673913043478261,-0.9565217391304348,-1.7354877318970676,-9.058049072411729,-3.5667265110712147,4055.6776556776554,1857.8754578754576,1.0,7.6859261528251075,130.10793756227167,-6.33587786259542,0.9312977099236641,2.4885496183206106,-0.3028485757121439,0.27136431784107945,-0.40929535232383807,1281.3186813186812,96.95689553822872,33.62172672534361,
1770997702718.153,0.6195652173913043,-5.641304347826087,-0.9239130434782609,-1.7091561938958706,-9.048473967684021,-3.559545182525434,4065.9340659340655,1871.7948717948716,1.0,7.68082092123904,130.19441674975073,-5.847328244274809,-0.1984732824427481,1.3740458015267174,-0.3028485757121439,0.2653673163418291,-0.41379310344827586,1517.216117216117,96.95403788982219,33.62172672534361,
1770997702737.688,0.6630434782608695,-5.630434782608695,-0.8695652173913043,-1.6947935368043088,-9.01735487731897,-3.492519449431478,4045.421245421245,1843.956043956044,1.0,7.6859261528251075,130.10793756227167,-5.236641221374046,0.6412213740458015,0.6259541984732824,-0.3073463268365817,0.2593703148425787,-0.41079460269865065,1756.0439560439559,96.95403788982219,33.62172672534361,
1770997702757.223,0.6521739130434783,-5.641304347826087,-0.8369565217391304,-1.6828246558946738,-9.036505086774387,-3.449431478156792,4071.7948717948716,1875.4578754578754,1.0,7.68082092123904,130.19441674975073,-5.099236641221374,1.465648854961832,-0.0916030534351145,-0.30134932533733133,0.2608695652173913,-0.4047976011994003,1912.087912087912,96.95689553822872,33.62172672534361,
1770997702776.7576,0.6521739130434783,-5.630434782608695,-0.858695652173913,-1.7067624177139438,-9.019748653500898,-3.4326750448833034,4070.32967032967,1877.6556776556774,1.0,7.6859261528251075,130.10793756227167,-5.526717557251908,2.351145038167939,-0.3053435114503817,-0.30134932533733133,0.2518740629685157,-0.4047976011994003,1941.3919413919414,96.95975318945311,33.62172672534361,
1770997702796.2925,0.6413043478260869,-5.641304347826087,-0.8260869565217391,-1.6923997606223817,-9.03411131059246,-3.468581687612208,4063.003663003663,1869.5970695970695,1.0,7.6859261528251075,130.10793756227167,-5.648854961832061,1.2061068702290076,-0.33587786259541985,-0.29385307346326833,0.24587706146926536,-0.4002998500749625,1851.2820512820513,96.95403788982219,33.62172672534361,
1770997702815.8274,0.6304347826086957,-5.684782608695652,-0.858695652173913,-1.7354877318970676,-9.058049072411729,-3.449431478156792,4042.490842490842,1841.0256410256409,1.0,7.68082092123904,130.19441674975073,-5.312977099236641,0.8549618320610687,-0.9465648854961831,-0.29535232383808097,0.2593703148425787,-0.41379310344827586,1676.1904761904761,96.95403788982219,33.62172672534361,
1770997702835.3623,0.6195652173913043,-5.663043478260869,-0.8804347826086957,-1.7330939557151406,-9.060442848593656,-3.509275882704967,4070.32967032967,1868.8644688644688,1.0,7.68082092123904,130.19441674975073,-4.778625954198473,0.47328244274809156,-1.984732824427481,-0.30134932533733133,0.2608695652173913,-0.4017991004497751,1477.6556776556777,96.95689553822872,33.62172672534361,
1770997702854.8972,0.5760869565217391,-5.641304347826087,-0.8695652173913043,-1.7522441651705565,-9.043686415320167,-3.502094554159186,4060.07326007326,1865.9340659340658,1.0,7.68082092123904,130.19441674975073,-4.564885496183206,0.4580152671755725,-2.763358778625954,-0.29535232383808097,0.2653673163418291,-0.4212893553223388,1295.2380952380952,96.96261084349531,33.62172672534361,
1770997702874.432,0.5760869565217391,-5.608695652173913,-0.858695652173913,-1.7666068222621185,-9.012567324955116,-3.497307001795332,4071.7948717948716,1881.3186813186812,1.0,7.68082092123904,130.19441674975073,-4.213740458015267,-0.9465648854961831,-3.5267175572519083,-0.2983508245877061,0.24137931034482757,-0.3958020989505247,1134.065934065934,96.95975318945311,33.62172672534361,
1770997702893.9668,0.5543478260869565,-5.565217391304348,-0.9239130434782609,-1.7857570317175344,-8.998204667863554,-3.526032315978456,4048.3516483516482,1853.4798534798533,1.0,7.68082092123904,130.19441674975073,-4.33587786259542,-2.610687022900763,-3.2671755725190836,-0.3058470764617691,0.24737631184407796,-0.4017991004497751,1016.117216117216,96.95403788982219,33.62172672534361,
1770997702913.5017,0.5217391304347826,-5.543478260869565,-0.9347826086956521,-1.8479952124476362,-8.947935368043089,-3.5739078396169957,4045.421245421245,1838.8278388278386,1.0,7.68082092123904,130.19441674975073,-4.580152671755725,-4.213740458015267,-3.114503816793893,-0.30134932533733133,0.239880059970015,-0.4077961019490255,961.9047619047618,96.95689553822872,33.62172672534361,
1770997702933.0366,0.5,-5.576086956521739,-0.9565217391304348,-1.862357869539198,-8.93836026331538,-3.571514063435069,4073.260073260073,1868.8644688644688,1.0,7.68082092123904,130.19441674975073,-4.488549618320611,-4.931297709923664,-3.877862595419847,-0.3043478260869565,0.25037481259370314,-0.4002998500749625,972.1611721611721,96.95403788982219,33.62172672534361,
1770997702952.5715,0.4891304347826087,-5.576086956521739,-0.9456521739130435,-1.886295631358468,-8.971873129862358,-3.5906642728904847,4063.003663003663,1866.6666666666665,1.0,7.68082092123904,130.19441674975073,-4.229007633587786,-4.67175572519084,-4.366412213740458,-0.29985007496251875,0.25037481259370314,-0.40929535232383807,1037.3626373626373,96.95118024423346,33.62172672534361,
1770997702972.1064,0.45652173913043476,-5.58695652173913,-0.967391304347826,-1.9102333931777378,-8.991023339317774,-3.571514063435069,4043.9560439560437,1836.6300366300366,1.0,7.68082092123904,130.19441674975073,-4.183206106870228,-4.717557251908397,-4.3206106870229,-0.2983508245877061,0.2608695652173913,-0.41379310344827586,1131.135531135531,96.95689553822872,33.62172672534361,
1770997702991.641,0.44565217391304346,-5.576086956521739,-0.967391304347826,-1.9533213644524237,-8.957510472770796,-3.571514063435069,4073.260073260073,1868.131868131868,1.0,7.68082092123904,130.19441674975073,-4.122137404580153,-4.198473282442748,-4.564885496183206,-0.3103448275862069,0.24437781109445278,-0.4017991004497751,1215.3846153846152,96.95689553822872,33.62172672534361,
1770997703011.176,0.42391304347826086,-5.576086956521739,-0.9347826086956521,-1.9557151406343507,-8.957510472770796,-3.564332734889288,4071.7948717948716,1882.051282051282,1.0,7.68082092123904,130.19441674975073,-4.534351145038168,-4.427480916030534,-4.564885496183206,-0.2983508245877061,0.24137931034482757,-0.40629685157421286,1254.212454212454,96.95118024423346,33.62172672534361,
1770997703030.711,0.42391304347826086,-5.576086956521739,-0.9347826086956521,-1.9389587073608616,-8.979054458408138,-3.557151406343507,4071.7948717948716,1886.4468864468863,1.0,7.68082092123904,130.19441674975073,-4.488549618320611,-4.259541984732825,-4.534351145038168,-0.3043478260869565,0.2623688155922039,-0.4077961019490255,1265.2014652014652,96.95403788982219,33.62172672534361,
1770997703050.2458,0.42391304347826086,-5.619565217391304,-0.967391304347826,-1.9509275882704966,-8.991023339317774,-3.557151406343507,4048.3516483516482,1855.6776556776556,1.0,7.68082092123904,130.19441674975073,-4.473282442748092,-4.229007633587786,-4.076335877862595,-0.3043478260869565,0.2383808095952024,-0.4032983508245877,1242.4908424908424,96.95403788982219,33.62172672534361,
1770997703069.7808,0.3695652173913043,-5.608695652173913,-0.9347826086956521,-1.9916217833632555,-9.005385996409336,-3.6074207061639734,4045.421245421245,1838.8278388278386,1.0,7.68082092123904,130.19441674975073,-4.900763358778626,-4.702290076335878,-3.49618320610687,-0.3028485757121439,0.25337331334332835,-0.416791604197901,1197.8021978021977,96.95118024423346,33.62172672534361,
1770997703089.3157,0.43478260869565216,-5.5978260869565215,-0.9239130434782609,-1.9628964691801316,-8.995810891681627,-3.557151406343507,4071.7948717948716,1873.9926739926739,1.0,7.68082092123904,130.19441674975073,-4.702290076335878,-5.9541984732824424,-3.297709923664122,-0.31334332833583206,0.2563718140929535,-0.416791604197901,1159.7069597069597,96.95975318945311,33.62172672534361,
1770997703108.8506,0.4891304347826087,-5.58695652173913,-0.9239130434782609,-1.9006582884500298,-8.983842010771992,-3.5739078396169957,4063.003663003663,1868.131868131868,1.0,7.68082092123904,130.19441674975073,-4.977099236641221,-5.66412213740458,-3.4351145038167936,-0.2983508245877061,0.2638680659670165,-0.41379310344827586,1129.6703296703297,96.95403788982219,33.62172672534361,
1770997703128.3853,0.4891304347826087,-5.554347826086956,-0.9347826086956521,-1.8575703171753442,-8.959904248952723,-3.5667265110712147,4071.7948717948716,1882.7838827838827,1.0,7.68082092123904,130.19441674975073,-4.717557251908397,-5.038167938931298,-2.9770992366412212,-0.3088455772113943,0.26836581709145424,-0.4122938530734633,1101.8315018315018,96.94832260146256,33.62172672534361,
1770997703147.9202,0.45652173913043476,-5.554347826086956,-0.9130434782608695,-1.895870736086176,-8.93836026331538,-3.564332734889288,4071.7948717948716,1885.7142857142856,1.0,7.68082092123904,130.19441674975073,-4.473282442748092,-4.305343511450381,-3.4198473282442747,-0.29985007496251875,0.2698650674662669,-0.4197901049475262,1068.8644688644688,96.95975318945311,33.62172672534361,
1770997703167.455,0.46739130434782605,-5.58695652173913,-0.9456521739130435,-1.8886894075403948,-8.959904248952723,-3.5691202872531416,4063.003663003663,1871.7948717948716,1.0,7.68082092123904,130.19441674975073,-4.3206106870229,-4.717557251908397,-4.061068702290076,-0.3028485757121439,0.24437781109445278,-0.41079460269865065,1046.8864468864467,96.95689553822872,33.62172672534361,
1770997703186.99,0.5,-5.565217391304348,-0.9565217391304348,-1.869539198084979,-8.964691801316576,-3.5906642728904847,4065.9340659340655,1874.7252747252746,1.0,7.68082092123904,130.19441674975073,-4.458015267175572,-5.648854961832061,-4.473282442748092,-0.3043478260869565,0.26836581709145424,-0.41829085457271364,1038.8278388278388,96.95975318945311,33.62172672534361,
1770997703206.525,0.4891304347826087,-5.532608695652174,-0.9456521739130435,-1.871932974266906,-8.947935368043089,-3.564332734889288,4046.8864468864467,1846.153846153846,1.0,7.68082092123904,130.19441674975073,-4.488549618320611,-6.458015267175572,-4.183206106870228,-0.3028485757121439,0.2593703148425787,-0.424287856071964,1033.6996336996335,96.95403788982219,33.62172672534361,
1770997703226.0598,0.4891304347826087,-5.576086956521739,-0.9347826086956521,-1.874326750448833,-8.935966487133452,-3.521244763614602,4043.9560439560437,1830.03663003663,1.0,7.68082092123904,130.19441674975073,-4.67175572519084,-7.2824427480916025,-3.709923664122137,-0.3058470764617691,0.2518740629685157,-0.4212893553223388,1046.1538461538462,96.95403788982219,33.62172672534361,
1770997703245.5945,0.46739130434782605,-5.565217391304348,-0.9130434782608695,-1.895870736086176,-8.96229802513465,-3.5427887492519448,4071.7948717948716,1871.7948717948716,1.0,7.68082092123904,130.19441674975073,-5.0534351145038165,-7.419847328244274,-3.7404580152671754,-0.3148425787106447,0.2593703148425787,-0.4122938530734633,1069.5970695970695,96.95689553822872,33.62172672534361,
1770997703265.1294,0.46739130434782605,-5.5978260869565215,-0.9347826086956521,-1.907839616995811,-8.967085577498503,-3.5427887492519448,4063.003663003663,1867.3992673992673,1.0,7.68082092123904,130.19441674975073,-4.961832061068702,-7.6183206106870225,-3.480916030534351,-0.3118440779610195,0.2608695652173913,-0.40929535232383807,1072.5274725274724,96.95689553822872,33.62172672534361,
1770997703284.6643,0.46739130434782605,-5.641304347826087,-1.0,-1.9006582884500298,-9.007779772591263,-3.6002393776181925,4070.32967032967,1876.1904761904761,1.0,7.68082092123904,130.19441674975073,-4.763358778625954,-7.511450381679389,-3.877862595419847,-0.3058470764617691,0.25037481259370314,-0.41379310344827586,1077.6556776556777,96.95689553822872,33.62172672534361,
1770997703304.1992,0.44565217391304346,-5.641304347826087,-0.967391304347826,-1.9461400359066428,-9.043686415320167,-3.5930580490724116,4070.32967032967,1878.3882783882782,1.0,7.68082092123904,130.19441674975073,-4.763358778625954,-5.221374045801526,-4.534351145038168,-0.3058470764617691,0.24737631184407796,-0.41079460269865065,1084.981684981685,96.95403788982219,33.62172672534361,
1770997703323.734,0.42391304347826086,-5.5978260869565215,-1.0,-1.9365649311789348,-9.010173548773189,-3.6385397965290243,4061.5384615384614,1863.7362637362637,1.0,7.68082092123904,130.19441674975073,-4.7328244274809155,-5.603053435114504,-4.778625954198473,-0.31334332833583206,0.27586206896551724,-0.43178410794602695,1089.3772893772893,96.95975318945311,33.62172672534361,
1770997703343.269,0.3913043478260869,-5.554347826086956,-0.967391304347826,-1.9628964691801316,-8.964691801316576,-3.6433273488928783,4070.32967032967,1874.7252747252746,1.0,7.68082092123904,130.19441674975073,-5.175572519083969,-6.137404580152672,-4.488549618320611,-0.3058470764617691,0.2383808095952024,-0.41079460269865065,1101.8315018315018,96.95403788982219,33.62172672534361,
1770997703362.8037,0.42391304347826086,-5.554347826086956,-0.9565217391304348,-1.9748653500897666,-8.945541591861161,-3.5930580490724116,4045.421245421245,1844.6886446886447,1.0,7.68082092123904,130.19441674975073,-5.526717557251908,-8.259541984732824,-4.5038167938931295,-0.3028485757121439,0.2578710644677661,-0.41529235382308843,1128.2051282051282,96.95689553822872,33.62172672534361,
1770997703382.3386,0.4782608695652174,-5.663043478260869,-1.0108695652173914,-1.9006582884500298,-9.000598444045481,-3.6289646918013165,4071.7948717948716,1875.4578754578754,1.0,7.68082092123904,130.19441674975073,-6.137404580152672,-8.442748091603054,-4.045801526717557,-0.3088455772113943,0.25487256371814093,-0.40629685157421286,1150.18315018315,96.96261084349531,33.62172672534361,
1770997703401.8735,0.43478260869565216,-5.619565217391304,-1.065217391304348,-1.9509275882704966,-9.022142429682825,-3.6983842010771992,4070.32967032967,1878.3882783882782,1.0,7.68082092123904,130.19441674975073,-6.671755725190839,-8.061068702290076,-3.5267175572519083,-0.3058470764617691,0.2593703148425787,-0.4257871064467766,1161.904761904762,96.95403788982219,33.62172672534361,
1770997703421.4084,0.40217391304347827,-5.554347826086956,-0.9782608695652174,-1.9916217833632555,-8.93836026331538,-3.6265709156193897,4063.003663003663,1869.5970695970695,1.0,7.68082092123904,130.19441674975073,-6.7328244274809155,-7.374045801526718,-3.66412213740458,-0.3088455772113943,0.25337331334332835,-0.4122938530734633,1161.1721611721612,96.95689553822872,33.62172672534361,
1770997703440.9434,0.46739130434782605,-5.565217391304348,-0.967391304347826,-1.9102333931777378,-8.957510472770796,-3.595451825254339,4071.7948717948716,1882.7838827838827,1.0,7.68082092123904,130.19441674975073,-6.961832061068702,-7.2824427480916025,-4.458015267175572,-0.31784107946026985,0.24137931034482757,-0.41079460269865065,1135.5311355311355,96.95403788982219,33.62172672534361,
1770997703460.4785,0.45652173913043476,-5.576086956521739,-0.9891304347826086,-1.886295631358468,-8.945541591861161,-3.6433273488928783,4071.7948717948716,1879.8534798534797,1.0,7.68082092123904,130.19441674975073,-7.038167938931298,-7.587786259541985,-4.213740458015267,-0.3028485757121439,0.24587706146926536,-0.41079460269865065,1085.7142857142856,96.95403788982219,33.62172672534361,
1770997703480.0132,0.41304347826086957,-5.521739130434782,-0.9239130434782609,-1.9509275882704966,-8.907241172950329,-3.5810891681627766,4063.003663003663,1870.3296703296703,1.0,7.68082092123904,130.19441674975073,-7.129770992366412,-8.931297709923664,-3.4351145038167936,-0.3088455772113943,0.27136431784107945,-0.416791604197901,1046.1538461538462,96.94832260146256,33.62172672534361,
1770997703499.548,0.44565217391304346,-5.543478260869565,-0.9347826086956521,-1.917414721723519,-8.92160383004189,-3.5547576301615798,4071.7948717948716,1882.7838827838827,1.0,7.68082092123904,130.19441674975073,-7.480916030534351,-9.81679389312977,-3.7251908396946565,-0.3058470764617691,0.24137931034482757,-0.4122938530734633,1030.7692307692307,96.95689553822872,33.62172672534361,
1770997703519.0828,0.44565217391304346,-5.565217391304348,-0.967391304347826,-1.905445840813884,-8.923997606223818,-3.6026331538001197,4046.8864468864467,1848.3516483516482,1.0,7.68082092123904,130.19441674975073,-7.557251908396946,-9.618320610687023,-3.2519083969465647,-0.3118440779610195,0.2518740629685157,-0.4122938530734633,1051.2820512820513,96.95403788982219,33.62172672534361,
1770997703538.6177,0.3695652173913043,-5.554347826086956,-0.967391304347826,-1.9988031119090364,-8.955116696588869,-3.5978456014362656,4071.7948717948716,1876.923076923077,1.0,7.68082092123904,130.19441674975073,-7.66412213740458,-9.32824427480916,-2.900763358778626,-0.31334332833583206,0.25337331334332835,-0.416791604197901,1156.0439560439559,96.95975318945311,33.62172672534361,
1770997703558.1526,0.40217391304347827,-5.58695652173913,-0.967391304347826,-1.9820466786355475,-8.971873129862358,-3.6098144823459006,4071.7948717948716,1884.9816849816848,1.0,7.68082092123904,130.19441674975073,-7.908396946564885,-8.290076335877862,-3.679389312977099,-0.3043478260869565,0.2518740629685157,-0.41079460269865065,1343.5897435897434,96.95975318945311,33.62172672534361,
1770997703577.6875,0.43478260869565216,-5.58695652173913,-0.9347826086956521,-1.9437462597247157,-8.959904248952723,-3.576301615798923,4064.468864468864,1872.5274725274724,1.0,7.68082092123904,130.19441674975073,-7.633587786259541,-8.122137404580153,-3.6488549618320607,-0.3028485757121439,0.2653673163418291,-0.4257871064467766,1560.4395604395604,96.95403788982219,33.62172672534361,
1770997703597.2224,0.3695652173913043,-5.6521739130434785,-0.9782608695652174,-1.9868342309994016,-9.038898862956314,-3.6002393776181925,4043.9560439560437,1838.095238095238,1.0,7.68082092123904,130.19441674975073,-8.305343511450381,-7.587786259541985,-3.7557251908396947,-0.3148425787106447,0.27586206896551724,-0.41379310344827586,1748.7179487179485,96.95975318945311,33.62172672534361,
1770997703616.757,0.3695652173913043,-5.630434782608695,-1.0108695652173914,-2.0347097546379413,-9.060442848593656,-3.6265709156193897,4071.7948717948716,1873.9926739926739,1.0,7.68082092123904,130.19441674975073,-8.366412213740457,-7.297709923664121,-3.3587786259541983,-0.31334332833583206,0.24587706146926536,-0.4197901049475262,1846.8864468864467,96.95975318945311,33.62172672534361,
1770997703636.292,0.3804347826086956,-5.619565217391304,-1.0217391304347825,-1.9892280071813284,-9.01735487731897,-3.6720526630760024,4071.7948717948716,1883.5164835164833,1.0,7.68082092123904,130.19441674975073,-8.51908396946565,-8.50381679389313,-3.5572519083969465,-0.29985007496251875,0.2608695652173913,-0.41379310344827586,1846.153846153846,96.95403788982219,33.62172672534361,
1770997703655.827,0.3695652173913043,-5.58695652173913,-0.9891304347826086,-1.9940155595451825,-8.98623578695392,-3.6193895870736084,4071.7948717948716,1886.4468864468863,1.0,7.68082092123904,130.19441674975073,-8.595419847328245,-8.335877862595419,-3.465648854961832,-0.3028485757121439,0.2368815592203898,-0.424287856071964,1753.113553113553,96.95403788982219,33.62172672534361,
1770997703675.3618,0.42391304347826086,-5.521739130434782,-1.0,-1.9628964691801316,-8.933572710951525,-3.6146020347097547,4055.6776556776554,1857.142857142857,1.0,7.68082092123904,130.19441674975073,-8.67175572519084,-9.206106870229007,-3.4045801526717554,-0.31634182908545727,0.2653673163418291,-0.41079460269865065,1597.069597069597,96.95118024423346,33.62172672534361,
1770997703694.8967,0.3804347826086956,-5.489130434782608,-0.9891304347826086,-1.9724715739078396,-8.885697187312987,-3.6217833632555356,4071.7948717948716,1878.3882783882782,1.0,7.68082092123904,130.19441674975073,-8.885496183206106,-9.740458015267174,-3.7709923664122136,-0.3028485757121439,0.2563718140929535,-0.4257871064467766,1417.5824175824175,96.95975318945311,33.62172672534361,
1770997703714.4316,0.40217391304347827,-5.521739130434782,-0.9782608695652174,-1.9892280071813284,-8.897666068222621,-3.6169958108916815,4071.7948717948716,1884.9816849816848,1.0,7.68082092123904,130.19441674975073,-8.580152671755725,-9.923664122137405,-4.213740458015267,-0.31634182908545727,0.2653673163418291,-0.4302848575712144,1256.4102564102564,96.95403788982219,33.62172672534361,
1770997703733.9666,0.41304347826086957,-5.565217391304348,-0.9891304347826086,-1.9748653500897666,-8.957510472770796,-3.6361460203470974,4063.003663003663,1871.7948717948716,1.0,7.68082092123904,130.19441674975073,-8.351145038167939,-8.854961832061068,-5.526717557251908,-0.3088455772113943,0.2578710644677661,-0.4197901049475262,1131.135531135531,96.95403788982219,33.62172672534361,
1770997703753.5012,0.31521739130434784,-5.619565217391304,-1.0326086956521738,-2.025134649910233,-8.976660682226212,-3.6505086774386593,4071.7948717948716,1882.7838827838827,1.0,7.68082092123904,130.19441674975073,-8.015267175572518,-7.694656488549618,-5.526717557251908,-0.31334332833583206,0.24137931034482757,-0.41379310344827586,1054.9450549450548,96.95118024423346,33.62172672534361,
1770997703773.036,0.30434782608695654,-5.58695652173913,-1.0,-2.094554159186116,-9.010173548773189,-3.65769000598444,4071.7948717948716,1886.4468864468863,1.0,7.68082092123904,130.19441674975073,-7.511450381679389,-6.549618320610687,-6.671755725190839,-0.3118440779610195,0.24437781109445278,-0.4302848575712144,1035.8974358974358,96.95689553822872,33.62172672534361,
1770997703792.571,0.3913043478260869,-5.521739130434782,-1.0326086956521738,-2.049072411729503,-8.900059844404549,-3.6672651107121483,4071.7948717948716,1887.179487179487,1.0,7.68082092123904,130.19441674975073,-6.687022900763359,-7.633587786259541,-7.526717557251908,-0.3088455772113943,0.24137931034482757,-0.41379310344827586,1067.3992673992673,96.95403788982219,33.62172672534361,
1770997703812.106,0.33695652173913043,-5.445652173913043,-1.0217391304347825,-2.0323159784560145,-8.859365649311789,-3.6265709156193897,4064.468864468864,1873.9926739926739,1.0,7.68082092123904,130.19441674975073,-6.534351145038167,-7.877862595419847,-7.022900763358779,-0.31334332833583206,0.2578710644677661,-0.4302848575712144,1131.8681318681317,96.95975318945311,33.62172672534361,
1770997703831.6409,0.31521739130434784,-5.445652173913043,-1.0108695652173914,-2.0777977259126272,-8.801915020945541,-3.6289646918013165,4046.8864468864467,1845.4212454212452,1.0,7.68082092123904,130.19441674975073,-6.091603053435114,-7.419847328244274,-6.458015267175572,-0.3148425787106447,0.2623688155922039,-0.41529235382308843,1196.3369963369962,96.95118024423346,33.62172672534361,
1770997703851.1758,0.31521739130434784,-5.445652173913043,-0.9891304347826086,-2.0754039497307,-8.82585278276481,-3.6146020347097547,4071.7948717948716,1876.1904761904761,1.0,7.68082092123904,130.19441674975073,-6.106870229007633,-7.480916030534351,-6.213740458015267,-0.3103448275862069,0.2638680659670165,-0.41829085457271364,1247.6190476190475,96.95403788982219,33.62172672534361,
