"sep=	"
Shimmer_A679_TimestampSync_Unix_CAL	Shimmer_A679_Accel_LN_X_CAL	Shimmer_A679_Accel_LN_Y_CAL	Shimmer_A679_Accel_LN_Z_CAL	Shimmer_A679_Accel_WR_X_CAL	Shimmer_A679_Accel_WR_Y_CAL	Shimmer_A679_Accel_WR_Z_CAL	Shimmer_A679_Battery_CAL	Shimmer_A679_Ext_Exp_A15_CAL	Shimmer_A679_GSR_Range_CAL	Shimmer_A679_GSR_Skin_Conductance_CAL	Shimmer_A679_GSR_Skin_Resistance_CAL	Shimmer_A679_Gyro_X_CAL	Shimmer_A679_Gyro_Y_CAL	Shimmer_A679_Gyro_Z_CAL	Shimmer_A679_Mag_X_CAL	Shimmer_A679_Mag_Y_CAL	Shimmer_A679_Mag_Z_CAL	Shimmer_A679_PPG_A13_CAL	Shimmer_A679_Pressure_BMP280_CAL	Shimmer_A679_Temperature_BMP280_CAL	
ms	m/(s^2)	m/(s^2)	m/(s^2)	m/(s^2)	m/(s^2)	m/(s^2)	mV	mV	no_units	uS	kOhms	deg/s	deg/s	deg/s	local_flux	local_flux	local_flux	mV	kPa	Degrees Celsius	
1.771340589974618E12	6.206521739130435	-5.293478260869565	2.402173913043478	4.3877917414721725	-8.562537402752842	0.06702573309395571	3929.6703296703295	1906.9597069597069	1.0	8.936707891411727	111.89802913453298	-4.3206106870229	-0.8549618320610687	-0.12213740458015267	-0.8050974512743628	0.13343328335832083	-0.2638680659670165	1300.3663003663003	99.62328716600538	28.596731256786732	
1.771340589994248E12	6.228260869565217	-5.271739130434782	2.4130434782608696	4.418910831837223	-8.550568521843207	0.0718132854578097	3928.205128205128	1913.5531135531135	1.0	8.936707891411727	111.89802913453298	-4.137404580152672	-1.3435114503816794	-0.12213740458015267	-0.808095952023988	0.1409295352323838	-0.2653673163418291	1347.985347985348	99.62612507177612	28.596731256786732	
1.7713405900138784E12	6.217391304347826	-5.293478260869565	2.4239130434782608	4.416517055655296	-8.567324955116696	0.06702573309395571	3920.879120879121	1901.098901098901	1.0	8.931602659825657	111.96198913975422	-4.564885496183206	-1.3740458015267174	-0.04580152671755725	-0.8110944527736131	0.1184407796101949	-0.2578710644677661	1364.8351648351647	99.62044926300854	28.596731256786732	
1.7713405900335085E12	6.271739130434782	-5.282608695652174	2.402173913043478	4.440454817474566	-8.552962298025134	0.09096349491322561	3928.205128205128	1911.3553113553112	1.0	8.931602659825657	111.96198913975422	-4.65648854961832	-1.7557251908396947	0.366412213740458	-0.8065967016491754	0.13493253373313344	-0.2593703148425787	1351.6483516483515	99.62328716600538	28.596731256786732	
1.7713405900531387E12	6.326086956521739	-5.293478260869565	2.4130434782608696	4.488330341113106	-8.564931178934769	0.06941950927588271	3928.205128205128	1915.018315018315	1.0	8.931602659825657	111.96198913975422	-4.152671755725191	-2.5038167938931295	-0.10687022900763359	-0.8110944527736131	0.12893553223388304	-0.2608695652173913	1318.6813186813185	99.62896298032078	28.596731256786732	
1.7713405900727688E12	6.369565217391304	-5.304347826086956	2.402173913043478	4.533812088569719	-8.567324955116696	0.06223818073010173	3928.205128205128	1915.018315018315	1.0	8.926497428239589	112.02602230483272	-4.3206106870229	-2.778625954198473	0.183206106870229	-0.7991004497751124	0.13793103448275862	-0.2593703148425787	1279.8534798534797	99.62328716600538	28.596731256786732	
1.771340590092399E12	6.3478260869565215	-5.282608695652174	2.402173913043478	4.521843207660083	-8.557749850388989	0.07420706163973669	3922.344322344322	1907.6923076923076	1.0	8.931602659825657	111.96198913975422	-3.9083969465648853	-2.4427480916030535	-0.5190839694656488	-0.8185907046476761	0.12593703148425786	-0.26836581709145424	1254.212454212454	99.62612507177612	28.596731256786732	
1.771340590112029E12	6.369565217391304	-5.260869565217392	2.391304347826087	4.5409934171155	-8.543387193297427	0.07660083782166367	3912.0879120879117	1890.8424908424906	1.0	8.926497428239589	112.02602230483272	-3.7404580152671754	-2.1068702290076335	-0.8549618320610687	-0.8095952023988006	0.1184407796101949	-0.2638680659670165	1246.153846153846	99.62044926300854	28.596731256786732	
1.7713405901316592E12	6.369565217391304	-5.293478260869565	2.4239130434782608	4.552962298025134	-8.567324955116696	0.07899461400359066	3929.6703296703295	1909.1575091575091	1.0	8.926497428239589	112.02602230483272	-3.66412213740458	-1.7251908396946565	-0.7633587786259541	-0.8110944527736131	0.1184407796101949	-0.2593703148425787	1232.967032967033	99.62328716600538	28.596731256786732	
1.7713405901512893E12	6.33695652173913	-5.304347826086956	2.402173913043478	4.5385996409335725	-8.54817474566128	0.07660083782166367	3928.205128205128	1914.2857142857142	1.0	8.92139219665352	112.09012875536482	-3.3740458015267176	-0.8549618320610687	-1.3435114503816794	-0.8050974512743628	0.12293853073463268	-0.27136431784107945	1220.5128205128203	99.62612507177612	28.596731256786732	
1.7713405901709194E12	6.3478260869565215	-5.282608695652174	2.402173913043478	4.524236983842011	-8.557749850388989	0.06223818073010173	3920.879120879121	1900.3663003663003	1.0	8.92139219665352	112.09012875536482	-2.931297709923664	0.564885496183206	-1.648854961832061	-0.808095952023988	0.13793103448275862	-0.2578710644677661	1200.7326007326008	99.62612507177612	28.596731256786732	
1.7713405901905496E12	6.33695652173913	-5.293478260869565	2.380434782608696	4.519449431478157	-8.555356074207062	0.059844404548174746	3900.3663003663	1872.5274725274724	1.0	8.92139219665352	112.09012875536482	-3.0229007633587783	1.7251908396946565	-1.6946564885496183	-0.8125937031484257	0.12593703148425786	-0.2608695652173913	1184.6153846153845	99.62328716600538	28.596731256786732	
1.7713405902101797E12	6.282608695652174	-5.304347826086956	2.402173913043478	4.464392579293836	-8.569718731298623	0.08138839018551765	3929.6703296703295	1904.0293040293038	1.0	8.92139219665352	112.09012875536482	-3.5725190839694654	1.7557251908396947	-1.4351145038167938	-0.8065967016491754	0.12443778110944527	-0.2638680659670165	1178.021978021978	99.63180089163936	28.596731256786732	
1.7713405902298098E12	6.228260869565217	-5.315217391304348	2.402173913043478	4.435667265110712	-8.555356074207062	0.06941950927588271	3928.205128205128	1912.087912087912	1.0	8.916286965067451	112.15430861723448	-3.679389312977099	1.984732824427481	-1.4351145038167938	-0.8140929535232384	0.13493253373313344	-0.2608695652173913	1180.952380952381	99.62328716600538	28.596731256786732	
1.77134059024944E12	6.228260869565217	-5.315217391304348	2.4239130434782608	4.4117295032914425	-8.564931178934769	0.09096349491322561	3929.6703296703295	1915.018315018315	1.0	8.916286965067451	112.15430861723448	-3.679389312977099	1.618320610687023	-1.6793893129770991	-0.8050974512743628	0.13193403298350825	-0.2653673163418291	1191.9413919413919	99.62328716600538	28.596731256786732	
1.77134059026907E12	6.206521739130435	-5.304347826086956	2.391304347826087	4.39736684619988	-8.58886894075404	0.07899461400359066	3904.7619047619046	1884.249084249084	1.0	8.916286965067451	112.15430861723448	-3.9083969465648853	1.2213740458015268	-1.083969465648855	-0.815592203898051	0.12593703148425786	-0.2698650674662669	1205.128205128205	99.61761136278564	28.596731256786732	
1.7713405902887002E12	6.195652173913043	-5.293478260869565	2.4239130434782608	4.368641532016756	-8.57211250748055	0.10771992818671454	3901.8315018315016	1874.7252747252746	1.0	8.916286965067451	112.15430861723448	-4.091603053435114	0.7022900763358778	-1.3893129770992365	-0.8110944527736131	0.12893553223388304	-0.2653673163418291	1215.3846153846152	99.62328716600538	28.596731256786732	
1.7713405903083303E12	6.206521739130435	-5.271739130434782	2.4130434782608696	4.344703770197486	-8.564931178934769	0.08138839018551765	3929.6703296703295	1904.7619047619046	1.0	8.911181733481383	112.21856201661416	-4.152671755725191	-0.24427480916030533	-0.9618320610687022	-0.8035982008995503	0.12293853073463268	-0.26836581709145424	1220.5128205128203	99.62328716600538	28.596731256786732	
1.7713405903279607E12	6.206521739130435	-5.282608695652174	2.380434782608696	4.359066427289048	-8.550568521843207	0.07660083782166367	3922.344322344322	1904.7619047619046	1.0	8.911181733481383	112.21856201661416	-4.2748091603053435	-1.2671755725190839	-0.6717557251908397	-0.8035982008995503	0.12893553223388304	-0.27136431784107945	1226.3736263736264	99.62328716600538	28.596731256786732	
1.7713405903475908E12	6.228260869565217	-5.304347826086956	2.369565217391304	4.426092160383004	-8.567324955116696	0.08138839018551765	3903.296703296703	1874.7252747252746	1.0	8.911181733481383	112.21856201661416	-4.351145038167939	-1.5419847328244274	-0.549618320610687	-0.8110944527736131	0.12743628185907047	-0.2608695652173913	1232.2344322344322	99.62328716600538	28.596731256786732	
1.771340590367221E12	6.271739130434782	-5.293478260869565	2.4130434782608696	4.464392579293836	-8.564931178934769	0.08617594254937164	3929.6703296703295	1904.7619047619046	1.0	8.906076501895315	112.28288907996561	-3.877862595419847	-1.0534351145038168	-0.6564885496183206	-0.8050974512743628	0.1409295352323838	-0.2623688155922039	1237.3626373626373	99.62044926300854	28.596731256786732	
1.771340590386851E12	6.260869565217391	-5.293478260869565	2.391304347826087	4.442848593656493	-8.564931178934769	0.08856971873129862	3929.6703296703295	1912.8205128205127	1.0	8.906076501895315	112.28288907996561	-3.7404580152671754	-1.4045801526717556	-0.6106870229007634	-0.8095952023988006	0.12293853073463268	-0.2653673163418291	1233.6996336996335	99.62328716600538	28.596731256786732	
1.7713405904064812E12	6.293478260869565	-5.304347826086956	2.3369565217391304	4.454817474566128	-8.59605026929982	0.033512866546977854	3929.6703296703295	1915.7509157509155	1.0	8.900971270309249	112.34728993404073	-3.7557251908396947	-1.4961832061068703	-0.9007633587786259	-0.8050974512743628	0.1199400299850075	-0.2593703148425787	1221.9780219780218	99.62612507177612	28.596731256786732	
1.7713405904261113E12	6.315217391304348	-5.315217391304348	2.391304347826087	4.500299222022741	-8.59605026929982	0.047875523638539794	3917.948717948718	1901.098901098901	1.0	8.906076501895315	112.28288907996561	-4.198473282442748	-1.1755725190839694	-1.1603053435114503	-0.8050974512743628	0.12593703148425786	-0.2608695652173913	1219.7802197802198	99.62328716600538	28.596731256786732	
1.7713405904457415E12	6.358695652173913	-5.358695652173913	2.391304347826087	4.5146618791143025	-8.648713345302214	0.040694195092758824	3931.135531135531	1918.6813186813185	1.0	8.900971270309249	112.34728993404073	-4.045801526717557	-0.7175572519083969	-1.4198473282442747	-0.800599700149925	0.13493253373313344	-0.2593703148425787	1229.3040293040292	99.62328716600538	28.596731256786732	
1.7713405904653716E12	6.293478260869565	-5.304347826086956	2.4130434782608696	4.497905445840813	-8.591262716935967	0.08138839018551765	3929.6703296703295	1917.216117216117	1.0	8.895866038723181	112.41176470588236	-4.366412213740458	0.7786259541984732	-1.66412213740458	-0.808095952023988	0.14992503748125938	-0.2578710644677661	1244.6886446886447	99.62044926300854	28.596731256786732	
1.7713405904850017E12	6.228260869565217	-5.239130434782608	2.402173913043478	4.402154398563734	-8.512268102932376	0.08138839018551765	3922.344322344322	1908.4249084249084	1.0	8.895866038723181	112.41176470588236	-4.045801526717557	1.4961832061068703	-1.816793893129771	-0.808095952023988	0.12443778110944527	-0.2608695652173913	1252.014652014652	99.62328716600538	28.596731256786732	
1.7713405905046318E12	6.217391304347826	-5.260869565217392	2.391304347826087	4.39736684619988	-8.557749850388989	0.06223818073010173	3931.135531135531	1920.8791208791208	1.0	8.895866038723181	112.41176470588236	-4.229007633587786	0.9465648854961831	-2.564885496183206	-0.8065967016491754	0.12143928035982009	-0.2578710644677661	1251.2820512820513	99.62328716600538	28.596731256786732	
1.771340590524262E12	6.217391304347826	-5.304347826086956	2.391304347826087	4.3877917414721725	-8.562537402752842	0.06463195691202872	3929.6703296703295	1917.9487179487178	1.0	8.895866038723181	112.41176470588236	-4.229007633587786	0.7175572519083969	-2.183206106870229	-0.8020989505247376	0.1394302848575712	-0.2638680659670165	1235.164835164835	99.62328716600538	28.596731256786732	
1.771340590543892E12	6.173913043478261	-5.33695652173913	2.380434782608696	4.375822860562537	-8.586475164572112	0.0718132854578097	3929.6703296703295	1917.216117216117	1.0	8.890760807137113	112.47631352282517	-3.709923664122137	0.6259541984732824	-1.4045801526717556	-0.8065967016491754	0.13793103448275862	-0.26836581709145424	1220.5128205128203	99.62896298032078	28.596731256786732	
1.7713405905635222E12	6.206521739130435	-5.3478260869565215	2.380434782608696	4.375822860562537	-8.615200478755236	0.06223818073010173	3922.344322344322	1908.4249084249084	1.0	8.890760807137113	112.47631352282517	-3.297709923664122	0.5801526717557252	-1.3587786259541985	-0.8065967016491754	0.13343328335832083	-0.2563718140929535	1204.3956043956043	99.62044926300854	28.596731256786732	
1.7713405905831523E12	6.206521739130435	-5.33695652173913	2.4130434782608696	4.363853979652903	-8.610412926391382	0.06223818073010173	3906.227106227106	1876.923076923077	1.0	8.890760807137113	112.47631352282517	-3.7251908396946565	0.4427480916030534	-1.3129770992366412	-0.808095952023988	0.1199400299850075	-0.27436281859070466	1213.9194139194137	99.63180089163936	28.596731256786732	
1.7713405906027825E12	6.195652173913043	-5.358695652173913	2.369565217391304	4.349491322561341	-8.624775583482943	0.06702573309395571	3931.135531135531	1911.3553113553112	1.0	8.890760807137113	112.47631352282517	-3.7404580152671754	0.5343511450381679	-1.3893129770992365	-0.8050974512743628	0.1199400299850075	-0.2563718140929535	1273.260073260073	99.62328716600538	28.596731256786732	
1.7713405906224126E12	6.195652173913043	-5.358695652173913	2.369565217391304	4.356672651107122	-8.653500897666069	0.03590664272890485	3931.135531135531	1921.6117216117216	1.0	8.885655575551045	112.54093651249642	-3.8167938931297707	-0.22900763358778625	-1.9236641221374045	-0.808095952023988	0.13043478260869565	-0.25037481259370314	1374.3589743589744	99.62044926300854	28.596731256786732	
1.771340590642043E12	6.184782608695652	-5.3478260869565215	2.358695652173913	4.344703770197486	-8.646319569120287	0.03590664272890485	3922.344322344322	1909.8901098901097	1.0	8.885655575551045	112.54093651249642	-3.9541984732824424	-0.2900763358778626	-2.015267175572519	-0.8095952023988006	0.1424287856071964	-0.25337331334332835	1484.9816849816848	99.62328716600538	28.596731256786732	
1.771340590661673E12	6.163043478260869	-5.33695652173913	2.380434782608696	4.359066427289048	-8.600837821663674	0.040694195092758824	3903.296703296703	1876.1904761904761	1.0	8.880550343964977	112.60563380281691	-3.847328244274809	-0.7480916030534351	-2.351145038167939	-0.8050974512743628	0.12293853073463268	-0.2578710644677661	1579.4871794871794	99.62328716600538	28.596731256786732	
1.7713405906813032E12	6.1521739130434785	-5.3478260869565215	2.369565217391304	4.337522441651705	-8.605625374027529	0.02154398563734291	3931.135531135531	1911.3553113553112	1.0	8.880550343964977	112.60563380281691	-4.1679389312977095	-0.7786259541984732	-1.984732824427481	-0.8200899550224887	0.14842578710644677	-0.2623688155922039	1635.164835164835	99.62574075043658	28.61180580794462	
1.7713405907009333E12	6.195652173913043	-5.3478260869565215	2.4130434782608696	4.351885098743267	-8.61998803111909	0.045481747456612806	3929.6703296703295	1915.018315018315	1.0	8.880550343964977	112.60563380281691	-3.633587786259542	-1.083969465648855	-1.6335877862595418	-0.808095952023988	0.13043478260869565	-0.2623688155922039	1628.5714285714284	99.63141670368735	28.61180580794462	
1.7713405907205635E12	6.184782608695652	-5.315217391304348	2.402173913043478	4.325553560742071	-8.598444045481747	0.06941950927588271	3923.8095238095234	1908.4249084249084	1.0	8.875445112378909	112.67040552200173	-4.091603053435114	-1.3129770992366412	-1.5419847328244274	-0.8065967016491754	0.13193403298350825	-0.2593703148425787	1573.6263736263736	99.62857872567494	28.61180580794462	
1.7713405907401936E12	6.184782608695652	-5.326086956521739	2.4130434782608696	4.349491322561341	-8.57211250748055	0.06223818073010173	3906.227106227106	1882.7838827838827	1.0	8.875445112378909	112.67040552200173	-4.213740458015267	-1.3587786259541985	-1.1603053435114503	-0.808095952023988	0.1409295352323838	-0.2563718140929535	1494.5054945054944	99.62574075043658	28.61180580794462	
1.7713405907598237E12	6.206521739130435	-5.33695652173913	2.380434782608696	4.363853979652903	-8.605625374027529	0.052663076002393776	3903.296703296703	1868.8644688644688	1.0	8.875445112378909	112.67040552200173	-3.8931297709923665	-1.450381679389313	-1.0687022900763359	-0.808095952023988	0.12293853073463268	-0.2593703148425787	1414.6520146520145	99.62857872567494	28.61180580794462	
1.7713405907794539E12	6.217391304347826	-5.33695652173913	2.369565217391304	4.373429084380611	-8.612806702573309	0.059844404548174746	3931.135531135531	1908.4249084249084	1.0	8.870339880792843	112.73525179856115	-3.5572519083969465	-1.4351145038167938	-1.129770992366412	-0.8035982008995503	0.12143928035982009	-0.2608695652173913	1339.194139194139	99.62857872567494	28.61180580794462	
1.771340590799084E12	6.206521739130435	-5.3478260869565215	2.369565217391304	4.363853979652903	-8.59605026929982	0.045481747456612806	3920.879120879121	1899.6336996336995	1.0	8.870339880792843	112.73525179856115	-3.450381679389313	-1.2213740458015268	-1.083969465648855	-0.8050974512743628	0.13493253373313344	-0.2518740629685157	1265.9340659340658	99.62857872567494	28.61180580794462	
1.771340590818714E12	6.217391304347826	-5.33695652173913	2.402173913043478	4.383004189108318	-8.598444045481747	0.06941950927588271	3931.135531135531	1917.9487179487178	1.0	8.870339880792843	112.73525179856115	-3.9236641221374042	-1.297709923664122	-0.8396946564885496	-0.808095952023988	0.12593703148425786	-0.2593703148425787	1194.1391941391942	99.62857872567494	28.61180580794462	
1.7713405908383442E12	6.239130434782608	-5.33695652173913	2.369565217391304	4.39736684619988	-8.610412926391382	0.07420706163973669	3931.135531135531	1923.0769230769229	1.0	8.865234649206773	112.80017276130148	-3.6488549618320607	-1.3435114503816794	-0.9312977099236641	-0.8065967016491754	0.13043478260869565	-0.2623688155922039	1154.5787545787546	99.62290277797226	28.61180580794462	
1.7713405908579744E12	6.239130434782608	-5.33695652173913	2.369565217391304	4.430879712746858	-8.612806702573309	0.033512866546977854	3929.6703296703295	1919.4139194139193	1.0	8.865234649206773	112.80017276130148	-3.8167938931297707	-1.282442748091603	-1.3740458015267174	-0.808095952023988	0.12143928035982009	-0.2593703148425787	1141.3919413919414	99.62857872567494	28.61180580794462	
1.7713405908776045E12	6.228260869565217	-5.326086956521739	2.3478260869565215	4.399760622381807	-8.598444045481747	0.045481747456612806	3929.6703296703295	1917.216117216117	1.0	8.865234649206773	112.80017276130148	-3.6030534351145036	-1.1603053435114503	-1.4198473282442747	-0.8035982008995503	0.12293853073463268	-0.2578710644677661	1158.974358974359	99.62857872567494	28.61180580794462	
1.7713405908972346E12	6.260869565217391	-5.315217391304348	2.3478260869565215	4.406941950927588	-8.610412926391382	0.033512866546977854	3904.7619047619046	1884.9816849816848	1.0	8.860129417620707	112.86516853932585	-4.091603053435114	-0.8091603053435115	-1.282442748091603	-0.8065967016491754	0.12743628185907047	-0.2623688155922039	1203.6630036630036	99.62574075043658	28.61180580794462	
1.7713405909168647E12	6.239130434782608	-5.315217391304348	2.369565217391304	4.406941950927588	-8.612806702573309	0.03590664272890485	3901.8315018315016	1873.9926739926739	1.0	8.860129417620707	112.86516853932585	-3.618320610687023	-0.8091603053435115	-1.0076335877862594	-0.8065967016491754	0.13793103448275862	-0.2578710644677661	1265.9340659340658	99.62574075043658	28.61180580794462	
1.7713405909364949E12	6.25	-5.326086956521739	2.3369565217391304	4.402154398563734	-8.617594254937163	0.011968880909634948	3928.205128205128	1904.7619047619046	1.0	8.855024186034639	112.93023926203517	-3.3587786259541983	-0.42748091603053434	-1.8931297709923662	-0.8050974512743628	0.136431784107946	-0.2578710644677661	1324.5421245421244	99.62574075043658	28.61180580794462	
1.7713405909561252E12	6.217391304347826	-5.3478260869565215	2.391304347826087	4.3949730700179535	-8.610412926391382	0.016756433273488927	3916.4835164835163	1896.7032967032965	1.0	8.860129417620707	112.86516853932585	-3.7709923664122136	-0.32061068702290074	-1.6335877862595418	-0.8110944527736131	0.14992503748125938	-0.2638680659670165	1370.6959706959706	99.62857872567494	28.61180580794462	
1.7713405909757554E12	6.239130434782608	-5.33695652173913	2.380434782608696	4.390185517654099	-8.608019150209456	0.04308797127468582	3929.6703296703295	1911.3553113553112	1.0	8.860129417620707	112.86516853932585	-3.8625954198473282	-0.10687022900763359	-1.6030534351145038	-0.8035982008995503	0.12293853073463268	-0.2608695652173913	1397.069597069597	99.62290277797226	28.61180580794462	
1.7713405909953855E12	6.228260869565217	-5.315217391304348	2.358695652173913	4.402154398563734	-8.603231597845602	0.05026929982046679	3929.6703296703295	1915.018315018315	1.0	8.855024186034639	112.93023926203517	-3.8167938931297707	0.0	-2.030534351145038	-0.815592203898051	0.13043478260869565	-0.2608695652173913	1400.7326007326005	99.63141670368735	28.61180580794462	
1.7713405910150156E12	6.206521739130435	-5.326086956521739	2.3478260869565215	4.383004189108318	-8.608019150209456	0.03590664272890485	3928.205128205128	1915.7509157509155	1.0	8.855024186034639	112.93023926203517	-3.8625954198473282	-0.33587786259541985	-1.8931297709923662	-0.8110944527736131	0.1424287856071964	-0.2608695652173913	1384.6153846153845	99.62574075043658	28.61180580794462	
1.7713405910346458E12	6.206521739130435	-5.33695652173913	2.380434782608696	4.380610412926392	-8.610412926391382	0.05026929982046679	3928.205128205128	1915.7509157509155	1.0	8.84991895444857	112.99538505912894	-4.1679389312977095	-0.3511450381679389	-1.8778625954198473	-0.8050974512743628	0.12593703148425786	-0.2593703148425787	1346.5201465201465	99.62574075043658	28.61180580794462	
1.771340591054276E12	6.217391304347826	-5.33695652173913	2.380434782608696	4.390185517654099	-8.61998803111909	0.033512866546977854	3923.8095238095234	1908.4249084249084	1.0	8.84991895444857	112.99538505912894	-3.8167938931297707	-0.183206106870229	-1.9694656488549618	-0.8035982008995503	0.1394302848575712	-0.2578710644677661	1299.6336996336995	99.62290277797226	28.61180580794462	
1.771340591073906E12	6.206521739130435	-5.358695652173913	2.369565217391304	4.3710353081986835	-8.622381807301018	0.023937761819269897	3929.6703296703295	1914.2857142857142	1.0	8.844813722862503	113.06060606060606	-3.7862595419847325	-0.2595419847328244	-1.8931297709923662	-0.8095952023988006	0.11094452773613193	-0.2593703148425787	1275.4578754578754	99.62574075043658	28.61180580794462	
1.7713405910935361E12	6.195652173913043	-5.326086956521739	2.3369565217391304	4.3949730700179535	-8.62716935966487	0.040694195092758824	3929.6703296703295	1915.7509157509155	1.0	8.844813722862503	113.06060606060606	-3.8625954198473282	-0.2748091603053435	-1.7557251908396947	-0.8125937031484257	0.13493253373313344	-0.2623688155922039	1265.2014652014652	99.62574075043658	28.61180580794462	
1.7713405911131663E12	6.184782608695652	-5.326086956521739	2.369565217391304	4.378216636744464	-8.603231597845602	0.03590664272890485	3917.948717948718	1900.3663003663003	1.0	8.844813722862503	113.06060606060606	-3.5572519083969465	-0.13740458015267176	-1.8015267175572518	-0.8140929535232384	0.14392803598200898	-0.2638680659670165	1253.4798534798533	99.62290277797226	28.61180580794462	
1.7713405911327964E12	6.195652173913043	-5.33695652173913	2.358695652173913	4.368641532016756	-8.600837821663674	0.03590664272890485	3901.8315018315016	1878.3882783882782	1.0	8.844813722862503	113.06060606060606	-3.633587786259542	-0.030534351145038167	-1.7099236641221374	-0.8095952023988006	0.13043478260869565	-0.2563718140929535	1243.956043956044	99.62574075043658	28.61180580794462	
1.7713405911524265E12	6.195652173913043	-5.33695652173913	2.358695652173913	4.3710353081986835	-8.600837821663674	0.031119090365050867	3929.6703296703295	1906.227106227106	1.0	8.834603259690367	113.19127419820862	-3.7709923664122136	-0.04580152671755725	-1.5572519083969465	-0.8125937031484257	0.12893553223388304	-0.2638680659670165	1234.4322344322343	99.62857872567494	28.61180580794462	
1.7713405911720566E12	6.206521739130435	-5.326086956521739	2.3478260869565215	4.380610412926392	-8.610412926391382	0.03590664272890485	3929.6703296703295	1913.5531135531135	1.0	8.839708491276436	113.12590239676581	-3.709923664122137	-0.5343511450381679	-1.5725190839694656	-0.7991004497751124	0.12593703148425786	-0.2578710644677661	1228.5714285714284	99.62574075043658	28.61180580794462	
1.7713405911916868E12	6.206521739130435	-5.33695652173913	2.369565217391304	4.409335727109515	-8.603231597845602	0.031119090365050867	3929.6703296703295	1915.7509157509155	1.0	8.839708491276436	113.12590239676581	-3.8625954198473282	-0.4580152671755725	-1.129770992366412	-0.8200899550224887	0.13793103448275862	-0.2593703148425787	1227.8388278388277	99.63141670368735	28.61180580794462	
1.771340591211317E12	6.25	-5.326086956521739	2.380434782608696	4.457211250748055	-8.593656493117892	0.052663076002393776	3926.7399267399264	1909.1575091575091	1.0	8.834603259690367	113.19127419820862	-3.297709923664122	1.0687022900763359	-2.0610687022900764	-0.800599700149925	0.13343328335832083	-0.2578710644677661	1236.6300366300366	99.62006480828197	28.61180580794462	
1.771340591230947E12	6.184782608695652	-5.326086956521739	2.3478260869565215	4.31837223219629	-8.605625374027529	0.047875523638539794	3931.135531135531	1920.8791208791208	1.0	8.834603259690367	113.19127419820862	-3.6488549618320607	-0.9312977099236641	-1.7404580152671756	-0.8065967016491754	0.1184407796101949	-0.2653673163418291	1253.4798534798533	99.63141670368735	28.61180580794462	
1.7713405912505771E12	6.228260869565217	-5.326086956521739	2.369565217391304	4.440454817474566	-8.569718731298623	0.03590664272890485	3929.6703296703295	1917.9487179487178	1.0	8.8294980281043	113.25672159583695	-3.4045801526717554	-0.6564885496183206	-1.9694656488549618	-0.7991004497751124	0.12443778110944527	-0.25487256371814093	1262.2710622710622	99.62574075043658	28.61180580794462	
1.7713405912702075E12	6.239130434782608	-5.315217391304348	2.3369565217391304	4.406941950927588	-8.605625374027529	0.016756433273488927	3916.4835164835163	1901.098901098901	1.0	8.8294980281043	113.25672159583695	-3.3435114503816794	0.030534351145038167	-2.259541984732824	-0.8020989505247376	0.1199400299850075	-0.2578710644677661	1254.9450549450548	99.62857872567494	28.61180580794462	
1.7713405912898376E12	6.239130434782608	-5.33695652173913	2.3152173913043477	4.383004189108318	-8.61998803111909	0.0023937761819269898	3931.135531135531	1918.6813186813185	1.0	8.8294980281043	113.25672159583695	-3.32824427480916	0.15267175572519084	-1.984732824427481	-0.8035982008995503	0.13343328335832083	-0.25487256371814093	1244.6886446886447	99.62857872567494	28.61180580794462	
1.7713405913094678E12	6.271739130434782	-5.3478260869565215	2.358695652173913	4.464392579293836	-8.639138240574505	0.02154398563734291	3929.6703296703295	1917.216117216117	1.0	8.8294980281043	113.25672159583695	-3.5114503816793894	-0.10687022900763359	-1.5114503816793892	-0.8170914542728636	0.1409295352323838	-0.27436281859070466	1237.3626373626373	99.62290277797226	28.61180580794462	
1.771340591329098E12	6.228260869565217	-5.33695652173913	2.3260869565217392	4.440454817474566	-8.629563135846798	0.047875523638539794	3929.6703296703295	1917.216117216117	1.0	8.824392796518232	113.32224472085623	-3.709923664122137	0.9923664122137404	-1.6793893129770991	-0.8050974512743628	0.15442278860569714	-0.2608695652173913	1237.3626373626373	99.62857872567494	28.61180580794462	
1.771340591348728E12	6.25	-5.315217391304348	2.3260869565217392	4.402154398563734	-8.610412926391382	0.00718132854578097	3920.879120879121	1902.5641025641025	1.0	8.824392796518232	113.32224472085623	-3.3740458015267176	0.9618320610687022	-1.2213740458015268	-0.8125937031484257	0.1454272863568216	-0.2578710644677661	1243.956043956044	99.62857872567494	28.61180580794462	
1.7713405913683582E12	6.239130434782608	-5.3478260869565215	2.3260869565217392	4.404548174745661	-8.59605026929982	-0.031119090365050867	3907.6923076923076	1887.179487179487	1.0	8.824392796518232	113.32224472085623	-4.030534351145038	1.099236641221374	-1.2671755725190839	-0.7991004497751124	0.13493253373313344	-0.2833583208395802	1252.7472527472526	99.62290277797226	28.61180580794462	
1.7713405913879883E12	6.228260869565217	-5.33695652173913	2.3478260869565215	4.3877917414721725	-8.63674446439258	0.00718132854578097	3903.296703296703	1869.5970695970695	1.0	8.824392796518232	113.32224472085623	-3.9236641221374042	1.1755725190839694	-0.9312977099236641	-0.8050974512743628	0.12443778110944527	-0.27136431784107945	1260.8058608058607	99.63141670368735	28.61180580794462	
1.7713405914076184E12	6.217391304347826	-5.326086956521739	2.358695652173913	4.402154398563734	-8.603231597845602	0.016756433273488927	3929.6703296703295	1903.296703296703	1.0	8.819287564932164	113.38784370477569	-3.66412213740458	1.2671755725190839	-1.1755725190839694	-0.8095952023988006	0.14992503748125938	-0.2653673163418291	1275.4578754578754	99.62574075043658	28.61180580794462	
1.7713405914272485E12	6.184782608695652	-5.304347826086956	2.369565217391304	4.339916217833633	-8.569718731298623	0.05026929982046679	3915.0183150183148	1890.8424908424906	1.0	8.819287564932164	113.38784370477569	-3.9847328244274807	1.816793893129771	-1.8015267175572518	-0.8065967016491754	0.12743628185907047	-0.2593703148425787	1292.3076923076922	99.62574075043658	28.61180580794462	
1.7713405914468787E12	6.163043478260869	-5.304347826086956	2.358695652173913	4.344703770197486	-8.598444045481747	0.031119090365050867	3903.296703296703	1871.0622710622708	1.0	8.819287564932164	113.38784370477569	-3.5114503816793894	1.7709923664122136	-2.015267175572519	-0.8065967016491754	0.14392803598200898	-0.26686656671664166	1289.3772893772893	99.62006480828197	28.61180580794462	
1.7713405914665088E12	6.173913043478261	-5.315217391304348	2.358695652173913	4.325553560742071	-8.586475164572112	0.047875523638539794	3929.6703296703295	1903.296703296703	1.0	8.814182333346096	113.45351867940921	-3.6488549618320607	1.114503816793893	-1.7862595419847327	-0.8065967016491754	0.13343328335832083	-0.2653673163418291	1274.7252747252746	99.62290277797226	28.61180580794462	
1.771340591486139E12	6.119565217391304	-5.304347826086956	2.391304347826087	4.313584679832435	-8.586475164572112	0.03590664272890485	3929.6703296703295	1912.8205128205127	1.0	8.814182333346096	113.45351867940921	-3.0534351145038165	0.6717557251908397	-1.099236641221374	-0.808095952023988	0.136431784107946	-0.2638680659670165	1271.062271062271	99.62574075043658	28.61180580794462	
1.771340591505769E12	6.141304347826087	-5.293478260869565	2.391304347826087	4.301615798922801	-8.57211250748055	0.0718132854578097	3931.135531135531	1921.6117216117216	1.0	8.814182333346096	113.45351867940921	-2.900763358778626	0.183206106870229	-0.5801526717557252	-0.7991004497751124	0.13043478260869565	-0.25487256371814093	1298.9010989010987	99.62006480828197	28.61180580794462	
1.7713405915253992E12	6.173913043478261	-5.3478260869565215	2.380434782608696	4.31837223219629	-8.631956912028725	0.059844404548174746	3906.227106227106	1887.179487179487	1.0	8.814182333346096	113.45351867940921	-2.916030534351145	-0.32061068702290074	0.061068702290076333	-0.8065967016491754	0.14842578710644677	-0.27436281859070466	1363.3699633699632	99.62290277797226	28.61180580794462	
1.7713405915450293E12	6.141304347826087	-5.380434782608695	2.402173913043478	4.31837223219629	-8.670257330939556	0.059844404548174746	3931.135531135531	1914.2857142857142	1.0	8.814182333346096	113.45351867940921	-3.16030534351145	-0.8244274809160305	-0.564885496183206	-0.8035982008995503	0.136431784107946	-0.2653673163418291	1459.3406593406592	99.62290277797226	28.61180580794462	
1.7713405915646594E12	6.173913043478261	-5.434782608695652	2.391304347826087	4.330341113105924	-8.696588868940754	0.05026929982046679	3931.135531135531	1922.344322344322	1.0	8.809077101760028	113.51926977687627	-3.145038167938931	-1.4351145038167938	-0.7786259541984732	-0.8020989505247376	0.13193403298350825	-0.2638680659670165	1567.032967032967	99.62290277797226	28.61180580794462	
1.7713405915842898E12	6.141304347826087	-5.4021739130434785	2.391304347826087	4.315978456014363	-8.670257330939556	0.045481747456612806	3915.0183150183148	1902.5641025641025	1.0	8.809077101760028	113.51926977687627	-2.229007633587786	-1.9389312977099236	-1.4045801526717556	-0.808095952023988	0.13043478260869565	-0.2608695652173913	1657.8754578754579	99.62574075043658	28.61180580794462	
1.77134059160392E12	6.130434782608695	-5.33695652173913	2.380434782608696	4.277678037103531	-8.648713345302214	0.0718132854578097	3931.135531135531	1919.4139194139193	1.0	8.809077101760028	113.51926977687627	-2.5343511450381677	-2.610687022900763	-1.8778625954198473	-0.8065967016491754	0.12743628185907047	-0.2578710644677661	1720.8791208791208	99.62857872567494	28.61180580794462	
1.77134059162355E12	6.119565217391304	-5.3478260869565215	2.3478260869565215	4.265709156193895	-8.624775583482943	0.038300418910831836	3929.6703296703295	1917.9487179487178	1.0	8.809077101760028	113.51926977687627	-2.549618320610687	-3.312977099236641	-2.213740458015267	-0.8035982008995503	0.1424287856071964	-0.2638680659670165	1750.18315018315	99.62290277797226	28.61180580794462	
1.7713405916431802E12	6.119565217391304	-5.380434782608695	2.3478260869565215	4.260921603830042	-8.639138240574505	0.02154398563734291	3928.205128205128	1916.4835164835163	1.0	8.809077101760028	113.51926977687627	-2.6412213740458013	-4.137404580152672	-1.816793893129771	-0.8110944527736131	0.12893553223388304	-0.2608695652173913	1736.9963369963368	99.62574075043658	28.61180580794462	
1.7713405916628103E12	6.108695652173913	-5.326086956521739	2.391304347826087	4.282465589467384	-8.610412926391382	0.03590664272890485	3917.948717948718	1901.098901098901	1.0	8.809077101760028	113.51926977687627	-2.3053435114503817	-4.595419847328244	-1.4351145038167938	-0.8170914542728636	0.1394302848575712	-0.27136431784107945	1673.260073260073	99.63141670368735	28.61180580794462	
1.7713405916824404E12	6.119565217391304	-5.282608695652174	2.358695652173913	4.284859365649312	-8.57929383602633	0.052663076002393776	3928.205128205128	1912.087912087912	1.0	8.803971870173962	113.58509712960279	-2.778625954198473	-4.809160305343512	-1.450381679389313	-0.8050974512743628	0.14842578710644677	-0.2653673163418291	1570.6959706959706	99.63223461689832	28.616830658912658	
1.7713405917020706E12	6.0978260869565215	-5.315217391304348	2.380434782608696	4.265709156193895	-8.58886894075404	0.03590664272890485	3929.6703296703295	1915.7509157509155	1.0	8.803971870173962	113.58509712960279	-2.9923664122137406	-4.305343511450381	-1.2519083969465647	-0.7976011994002998	0.12293853073463268	-0.2653673163418291	1471.062271062271	99.62939661572989	28.616830658912658	
1.7713405917217007E12	6.1521739130434785	-5.33695652173913	2.3478260869565215	4.284859365649312	-8.608019150209456	0.038300418910831836	3929.6703296703295	1916.4835164835163	1.0	8.803971870173962	113.58509712960279	-2.8244274809160306	-4.442748091603053	-1.3893129770992365	-0.7976011994002998	0.11544227886056971	-0.2653673163418291	1389.7435897435896	99.62372062171526	28.616830658912658	
1.7713405917413308E12	6.239130434782608	-5.326086956521739	2.358695652173913	4.335128665469778	-8.591262716935967	0.016756433273488927	3912.0879120879117	1893.040293040293	1.0	8.803971870173962	113.58509712960279	-2.916030534351145	-4.2748091603053435	-0.9007633587786259	-0.8065967016491754	0.13043478260869565	-0.2578710644677661	1322.3443223443223	99.62939661572989	28.616830658912658	
1.771340591760961E12	6.173913043478261	-5.304347826086956	2.3369565217391304	4.385397965290245	-8.59605026929982	0.016756433273488927	3901.8315018315016	1876.923076923077	1.0	8.803971870173962	113.58509712960279	-3.2213740458015265	-3.5267175572519083	-0.6870229007633587	-0.808095952023988	0.13793103448275862	-0.2593703148425787	1274.7252747252746	99.62372062171526	28.616830658912658	
1.771340591780591E12	6.282608695652174	-5.326086956521739	2.369565217391304	4.383004189108318	-8.598444045481747	0.040694195092758824	3929.6703296703295	1905.4945054945053	1.0	8.798866638587894	113.65100087032202	-3.32824427480916	-4.687022900763359	-0.549618320610687	-0.7961019490254873	0.14842578710644677	-0.2593703148425787	1259.3406593406592	99.63223461689832	28.616830658912658	
1.7713405918002212E12	6.260869565217391	-5.326086956521739	2.369565217391304	4.507480550568522	-8.612806702573309	0.05505685218432076	3929.6703296703295	1913.5531135531135	1.0	8.798866638587894	113.65100087032202	-3.0381679389312977	-4.076335877862595	-1.282442748091603	-0.808095952023988	0.12293853073463268	-0.25337331334332835	1279.120879120879	99.63223461689832	28.616830658912658	
1.7713405918198513E12	6.293478260869565	-5.315217391304348	2.402173913043478	4.418910831837223	-8.581687612208258	0.045481747456612806	3929.6703296703295	1915.7509157509155	1.0	8.798866638587894	113.65100087032202	-3.3435114503816794	-3.9083969465648853	-1.1908396946564885	-0.8020989505247376	0.1199400299850075	-0.2578710644677661	1327.4725274725274	99.62655861733555	28.616830658912658	
1.7713405918394814E12	6.315217391304348	-5.326086956521739	2.391304347826087	4.5146618791143025	-8.605625374027529	0.06702573309395571	3906.227106227106	1884.9816849816848	1.0	8.798866638587894	113.65100087032202	-3.633587786259542	-4.0	-1.648854961832061	-0.8020989505247376	0.12893553223388304	-0.2653673163418291	1379.4871794871794	99.62939661572989	28.616830658912658	
1.7713405918591116E12	6.3478260869565215	-5.315217391304348	2.391304347826087	4.521843207660083	-8.617594254937163	0.05745062836624776	3929.6703296703295	1907.6923076923076	1.0	8.798866638587894	113.65100087032202	-3.312977099236641	-3.480916030534351	-1.816793893129771	-0.8050974512743628	0.13193403298350825	-0.2518740629685157	1437.3626373626373	99.63223461689832	28.616830658912658	
1.7713405918787417E12	6.391304347826087	-5.33695652173913	2.369565217391304	4.550568521843208	-8.603231597845602	0.06941950927588271	3929.6703296703295	1914.2857142857142	1.0	8.798866638587894	113.65100087032202	-3.0229007633587783	-3.633587786259542	-1.5877862595419847	-0.7976011994002998	0.15442278860569714	-0.2653673163418291	1481.3186813186812	99.63223461689832	28.616830658912658	
1.771340591898372E12	6.358695652173913	-5.33695652173913	2.380434782608696	4.569718731298623	-8.608019150209456	0.05026929982046679	3910.62271062271	1891.5750915750914	1.0	8.798866638587894	113.65100087032202	-3.297709923664122	-2.6564885496183206	-2.351145038167939	-0.800599700149925	0.12593703148425786	-0.2623688155922039	1502.5641025641025	99.62655861733555	28.616830658912658	
1.7713405919180022E12	6.423913043478261	-5.315217391304348	2.391304347826087	4.61280670257331	-8.612806702573309	0.045481747456612806	3901.8315018315016	1876.1904761904761	1.0	8.793761407001826	113.71698113207547	-2.8396946564885495	-2.2900763358778624	-2.6259541984732824	-0.8050974512743628	0.13343328335832083	-0.2638680659670165	1501.8315018315018	99.62939661572989	28.616830658912658	
1.7713405919376323E12	6.3478260869565215	-5.304347826086956	2.369565217391304	4.5792938360263316	-8.586475164572112	0.026331538001196888	3929.6703296703295	1905.4945054945053	1.0	8.798866638587894	113.65100087032202	-2.7022900763358777	-1.083969465648855	-2.748091603053435	-0.8050974512743628	0.13193403298350825	-0.25337331334332835	1480.5860805860805	99.63223461689832	28.616830658912658	
1.7713405919572625E12	6.369565217391304	-5.293478260869565	2.3478260869565215	4.560143626570915	-8.581687612208258	0.031119090365050867	3926.7399267399264	1906.227106227106	1.0	8.798866638587894	113.65100087032202	-3.0229007633587783	-1.0076335877862594	-2.687022900763359	-0.800599700149925	0.15142428785607195	-0.2608695652173913	1443.956043956044	99.62939661572989	28.616830658912658	
1.7713405919768926E12	6.326086956521739	-5.282608695652174	2.3260869565217392	4.521843207660083	-8.57211250748055	0.009575104727707959	3928.205128205128	1912.8205128205127	1.0	8.793761407001826	113.71698113207547	-3.0229007633587783	0.13740458015267176	-2.6259541984732824	-0.808095952023988	0.1184407796101949	-0.25337331334332835	1404.3956043956043	99.62655861733555	28.616830658912658	
1.7713405919965227E12	6.293478260869565	-5.304347826086956	2.358695652173913	4.505086774386594	-8.581687612208258	-0.0023937761819269898	3906.227106227106	1884.249084249084	1.0	8.793761407001826	113.71698113207547	-2.900763358778626	0.9465648854961831	-2.717557251908397	-0.8020989505247376	0.136431784107946	-0.25487256371814093	1372.8937728937728	99.63223461689832	28.616830658912658	
1.7713405920161528E12	6.25	-5.315217391304348	2.3369565217391304	4.450029922202274	-8.569718731298623	0.0023937761819269898	3928.205128205128	1906.9597069597069	1.0	8.793761407001826	113.71698113207547	-3.1908396946564883	2.015267175572519	-2.717557251908397	-0.793103448275862	0.1199400299850075	-0.25487256371814093	1339.9267399267399	99.62655861733555	28.616830658912658	
1.771340592035783E12	6.25	-5.304347826086956	2.3369565217391304	4.430879712746858	-8.567324955116696	0.0	3928.205128205128	1913.5531135531135	1.0	8.788656175415758	113.78303804821377	-3.3740458015267176	1.8473282442748091	-2.33587786259542	-0.800599700149925	0.13493253373313344	-0.2638680659670165	1309.1575091575091	99.62088262886911	28.616830658912658	
1.771340592055413E12	6.228260869565217	-5.304347826086956	2.3369565217391304	4.390185517654099	-8.584081388390185	0.016756433273488927	3909.1575091575087	1884.9816849816848	1.0	8.788656175415758	113.78303804821377	-3.7862595419847325	2.3053435114503817	-1.9541984732824427	-0.800599700149925	0.14842578710644677	-0.27136431784107945	1284.9816849816848	99.63223461689832	28.616830658912658	
1.7713405920750432E12	6.228260869565217	-5.315217391304348	2.369565217391304	4.380610412926392	-8.600837821663674	0.033512866546977854	3929.6703296703295	1907.6923076923076	1.0	8.788656175415758	113.78303804821377	-3.9541984732824424	2.16793893129771	-2.229007633587786	-0.7976011994002998	0.12443778110944527	-0.24737631184407796	1273.9926739926739	99.62939661572989	28.616830658912658	
1.7713405920946733E12	6.228260869565217	-5.33695652173913	2.3478260869565215	4.406941950927588	-8.610412926391382	0.033512866546977854	3929.6703296703295	1914.2857142857142	1.0	8.788656175415758	113.78303804821377	-3.9083969465648853	2.5801526717557253	-2.259541984732824	-0.8020989505247376	0.12593703148425786	-0.2608695652173913	1274.7252747252746	99.62655861733555	28.616830658912658	
1.7713405921143035E12	6.217391304347826	-5.315217391304348	2.391304347826087	4.383004189108318	-8.598444045481747	0.05505685218432076	3928.205128205128	1915.018315018315	1.0	8.788656175415758	113.78303804821377	-4.0	2.6564885496183206	-2.4427480916030535	-0.8035982008995503	0.12743628185907047	-0.25337331334332835	1289.3772893772893	99.62372062171526	28.616830658912658	
1.7713405921339336E12	6.195652173913043	-5.33695652173913	2.369565217391304	4.3710353081986835	-8.610412926391382	0.052663076002393776	3929.6703296703295	1916.4835164835163	1.0	8.788656175415758	113.78303804821377	-3.9236641221374042	2.7938931297709924	-2.183206106870229	-0.8050974512743628	0.13343328335832083	-0.2653673163418291	1306.9597069597069	99.62655861733555	28.616830658912658	
1.7713405921535637E12	6.184782608695652	-5.33695652173913	2.380434782608696	4.368641532016756	-8.615200478755236	0.047875523638539794	3928.205128205128	1916.4835164835163	1.0	8.78355094382969	113.84917175239757	-4.0	2.519083969465649	-2.1374045801526718	-0.8035982008995503	0.12893553223388304	-0.2638680659670165	1315.7509157509157	99.62939661572989	28.616830658912658	
1.7713405921731938E12	6.195652173913043	-5.33695652173913	2.369565217391304	4.366247755834829	-8.610412926391382	0.05745062836624776	3929.6703296703295	1916.4835164835163	1.0	8.78355094382969	113.84917175239757	-3.969465648854962	1.9083969465648853	-2.198473282442748	-0.8035982008995503	0.12443778110944527	-0.2563718140929535	1325.2747252747251	99.62372062171526	28.616830658912658	
1.771340592192824E12	6.195652173913043	-5.326086956521739	2.391304347826087	4.359066427289048	-8.591262716935967	0.05505685218432076	3929.6703296703295	1917.216117216117	1.0	8.78355094382969	113.84917175239757	-3.9541984732824424	1.7251908396946565	-2.0763358778625953	-0.8050974512743628	0.1169415292353823	-0.2563718140929535	1318.6813186813185	99.62655861733555	28.616830658912658	
1.7713405922124543E12	6.195652173913043	-5.315217391304348	2.3478260869565215	4.354278874925194	-8.591262716935967	0.033512866546977854	3910.62271062271	1892.3076923076922	1.0	8.78355094382969	113.84917175239757	-3.9541984732824424	1.4045801526717556	-1.6030534351145038	-0.8050974512743628	0.13193403298350825	-0.25487256371814093	1317.9487179487178	99.62655861733555	28.616830658912658	
1.7713405922320845E12	6.173913043478261	-5.315217391304348	2.380434782608696	4.363853979652903	-8.58886894075404	0.033512866546977854	3903.296703296703	1871.7948717948716	1.0	8.78355094382969	113.84917175239757	-3.847328244274809	1.099236641221374	-1.4198473282442747	-0.7991004497751124	0.13193403298350825	-0.2518740629685157	1321.6117216117216	99.61520665149905	28.616830658912658	
1.7713405922517146E12	6.184782608695652	-5.282608695652174	2.369565217391304	4.359066427289048	-8.59605026929982	0.045481747456612806	3931.135531135531	1909.8901098901097	1.0	8.78355094382969	113.84917175239757	-4.1679389312977095	1.1908396946564885	-1.66412213740458	-0.8110944527736131	0.15892053973013492	-0.2623688155922039	1326.007326007326	99.62939661572989	28.616830658912658	
1.7713405922713447E12	6.206521739130435	-5.293478260869565	2.3369565217391304	4.363853979652903	-8.576900059844405	0.011968880909634948	3929.6703296703295	1915.018315018315	1.0	8.78355094382969	113.84917175239757	-4.015267175572519	0.916030534351145	-1.7099236641221374	-0.8065967016491754	0.13043478260869565	-0.25337331334332835	1322.3443223443223	99.62655861733555	28.616830658912658	
1.7713405922909749E12	6.271739130434782	-5.315217391304348	2.369565217391304	4.423698384201077	-8.57211250748055	0.02154398563734291	3931.135531135531	1922.344322344322	1.0	8.77844571224362	113.91538237859844	-4.580152671755725	0.9007633587786259	-1.3129770992366412	-0.800599700149925	0.1199400299850075	-0.2593703148425787	1317.216117216117	99.62372062171526	28.616830658912658	
1.771340592310605E12	6.25	-5.3478260869565215	2.391304347826087	4.433273488928785	-8.634350688210652	0.07420706163973669	3929.6703296703295	1918.6813186813185	1.0	8.78355094382969	113.84917175239757	-4.7328244274809155	1.297709923664122	-0.9618320610687022	-0.8035982008995503	0.13193403298350825	-0.2638680659670165	1324.5421245421244	99.62939661572989	28.616830658912658	
1.771340592330235E12	6.25	-5.315217391304348	2.3478260869565215	4.433273488928785	-8.61998803111909	0.047875523638539794	3903.296703296703	1878.3882783882782	1.0	8.77844571224362	113.91538237859844	-4.396946564885496	1.2061068702290076	-1.297709923664122	-0.8065967016491754	0.12893553223388304	-0.2653673163418291	1330.4029304029302	99.62655861733555	28.616830658912658	
1.7713405923498652E12	6.239130434782608	-5.315217391304348	2.3478260869565215	4.428485936564931	-8.598444045481747	0.01436265709156194	3931.135531135531	1912.087912087912	1.0	8.77844571224362	113.91538237859844	-4.076335877862595	2.045801526717557	-1.3587786259541985	-0.8050974512743628	0.12743628185907047	-0.2638680659670165	1328.2051282051282	99.62655861733555	28.616830658912658	
1.7713405923694954E12	6.25	-5.380434782608695	2.369565217391304	4.42130460801915	-8.648713345302214	0.040694195092758824	3910.62271062271	1890.8424908424906	1.0	8.77844571224362	113.91538237859844	-4.519083969465648	1.8473282442748091	-1.8931297709923662	-0.8110944527736131	0.12593703148425786	-0.25337331334332835	1321.6117216117216	99.62655861733555	28.616830658912658	
1.7713405923891255E12	6.260869565217391	-5.315217391304348	2.4130434782608696	4.39736684619988	-8.62716935966487	0.0933572710951526	3903.296703296703	1871.0622710622708	1.0	8.77844571224362	113.91538237859844	-4.290076335877862	1.3587786259541985	-1.7862595419847327	-0.8095952023988006	0.11094452773613193	-0.2593703148425787	1316.4835164835165	99.62939661572989	28.616830658912658	
1.7713405924087556E12	6.163043478260869	-5.260869565217392	2.4347826086956523	4.31837223219629	-8.552962298025134	0.11250748055056851	3931.135531135531	1909.1575091575091	1.0	8.77844571224362	113.91538237859844	-3.9389312977099236	1.7404580152671756	-2.1526717557251906	-0.8050974512743628	0.13043478260869565	-0.2608695652173913	1312.8205128205127	99.62372062171526	28.616830658912658	
1.7713405924283857E12	6.1521739130434785	-5.304347826086956	2.4130434782608696	4.306403351286654	-8.58886894075404	0.08378216636744464	3929.6703296703295	1914.2857142857142	1.0	8.77844571224362	113.91538237859844	-4.427480916030534	1.66412213740458	-2.564885496183206	-0.800599700149925	0.13343328335832083	-0.2563718140929535	1301.8315018315018	99.62372062171526	28.616830658912658	
1.7713405924480159E12	6.173913043478261	-5.304347826086956	2.391304347826087	4.304009575104728	-8.560143626570916	0.047875523638539794	3907.6923076923076	1890.8424908424906	1.0	8.77844571224362	113.91538237859844	-4.366412213740458	0.5190839694656488	-2.778625954198473	-0.7961019490254873	0.14842578710644677	-0.2608695652173913	1288.6446886446886	99.62372062171526	28.616830658912658	
1.771340592467646E12	6.163043478260869	-5.315217391304348	2.4130434782608696	4.31837223219629	-8.574506283662478	0.11011370436864153	3910.62271062271	1884.9816849816848	1.0	8.773340480657552	113.9816700610998	-4.076335877862595	-0.366412213740458	-2.396946564885496	-0.8050974512743628	0.15142428785607195	-0.2578710644677661	1292.3076923076922	99.62655861733555	28.616830658912658	
1.7713405924872761E12	6.184782608695652	-5.33695652173913	2.4239130434782608	4.359066427289048	-8.610412926391382	0.08138839018551765	3901.8315018315016	1874.7252747252746	1.0	8.773340480657552	113.9816700610998	-3.8625954198473282	-1.4198473282442747	-1.9389312977099236	-0.8035982008995503	0.12893553223388304	-0.2623688155922039	1306.9597069597069	99.62088262886911	28.616830658912658	
1.7713405925069065E12	6.239130434782608	-5.358695652173913	2.4239130434782608	4.416517055655296	-8.641532016756432	0.0933572710951526	3929.6703296703295	1904.7619047619046	1.0	8.773340480657552	113.9816700610998	-3.801526717557252	-2.0	-1.3282442748091603	-0.8020989505247376	0.12743628185907047	-0.27136431784107945	1360.4395604395604	99.62939661572989	28.616830658912658	
1.7713405925265366E12	6.282608695652174	-5.391304347826087	2.380434782608696	4.416517055655296	-8.655894673847994	0.10053859964093358	3909.1575091575087	1882.7838827838827	1.0	8.773340480657552	113.9816700610998	-3.8931297709923665	-2.0	-1.6946564885496183	-0.800599700149925	0.13043478260869565	-0.25487256371814093	1476.923076923077	99.62372062171526	28.616830658912658	
1.7713405925461667E12	6.239130434782608	-5.3478260869565215	2.391304347826087	4.442848593656493	-8.64392579293836	0.031119090365050867	3931.135531135531	1913.5531135531135	1.0	8.768235249071484	114.04803493449782	-3.5114503816793894	-1.8625954198473282	-1.4809160305343512	-0.800599700149925	0.12293853073463268	-0.25487256371814093	1618.3150183150183	99.62655861733555	28.616830658912658	
1.7713405925657969E12	6.239130434782608	-5.304347826086956	2.380434782608696	4.450029922202274	-8.62716935966487	0.045481747456612806	3929.6703296703295	1915.7509157509155	1.0	8.768235249071484	114.04803493449782	-3.618320610687023	-1.4961832061068703	-2.5801526717557253	-0.800599700149925	0.1409295352323838	-0.27136431784107945	1742.8571428571427	99.62655861733555	28.616830658912658	
1.771340592585427E12	6.25	-5.293478260869565	2.380434782608696	4.433273488928785	-8.59605026929982	0.06223818073010173	3929.6703296703295	1909.8901098901097	1.0	8.768235249071484	114.04803493449782	-3.3740458015267176	-1.4961832061068703	-2.717557251908397	-0.800599700149925	0.136431784107946	-0.27136431784107945	1812.4542124542124	99.62655861733555	28.616830658912658	
1.7713405926050571E12	6.239130434782608	-5.304347826086956	2.380434782608696	4.426092160383004	-8.562537402752842	0.08617594254937164	3931.135531135531	1920.8791208791208	1.0	8.768235249071484	114.04803493449782	-3.450381679389313	-1.1603053435114503	-2.717557251908397	-0.8050974512743628	0.13193403298350825	-0.2593703148425787	1839.5604395604394	99.62655861733555	28.616830658912658	
1.7713405926246873E12	6.271739130434782	-5.3478260869565215	2.3369565217391304	4.44524236983842	-8.57929383602633	0.023937761819269897	3915.0183150183148	1895.970695970696	1.0	8.768235249071484	114.04803493449782	-3.465648854961832	-0.7022900763358778	-2.4580152671755724	-0.8095952023988006	0.12293853073463268	-0.25337331334332835	1824.9084249084249	99.62372062171526	28.616830658912658	
1.7713405926443174E12	6.228260869565217	-5.293478260869565	2.391304347826087	4.440454817474566	-8.591262716935967	0.03590664272890485	3931.135531135531	1916.4835164835163	1.0	8.768235249071484	114.04803493449782	-3.16030534351145	-0.3511450381679389	-2.045801526717557	-0.8020989505247376	0.14842578710644677	-0.2593703148425787	1773.6263736263736	99.62655861733555	28.616830658912658	
1.7713405926639475E12	6.206521739130435	-5.293478260869565	2.3478260869565215	4.390185517654099	-8.567324955116696	0.05026929982046679	3929.6703296703295	1916.4835164835163	1.0	8.763130017485416	114.11447713370231	-3.5267175572519083	-0.6564885496183206	-2.1526717557251906	-0.8020989505247376	0.15292353823088456	-0.26836581709145424	1689.3772893772893	99.62655861733555	28.616830658912658	
1.7713405926835776E12	6.228260869565217	-5.315217391304348	2.369565217391304	4.385397965290245	-8.567324955116696	0.045481747456612806	3907.6923076923076	1890.8424908424906	1.0	8.763130017485416	114.11447713370231	-3.847328244274809	-0.7175572519083969	-2.1374045801526718	-0.8035982008995503	0.13193403298350825	-0.25487256371814093	1584.6153846153845	99.62737648694512	28.621855510171734	
1.7713405927032078E12	6.228260869565217	-5.304347826086956	2.380434782608696	4.404548174745661	-8.584081388390185	0.06223818073010173	3931.135531135531	1915.7509157509155	1.0	8.763130017485416	114.11447713370231	-3.9389312977099236	-0.9923664122137404	-2.0610687022900764	-0.7991004497751124	0.136431784107946	-0.2578710644677661	1476.923076923077	99.62737648694512	28.621855510171734	
1.771340592722838E12	6.195652173913043	-5.304347826086956	2.369565217391304	4.409335727109515	-8.584081388390185	0.040694195092758824	3929.6703296703295	1916.4835164835163	1.0	8.763130017485416	114.11447713370231	-3.7404580152671754	-0.8396946564885496	-1.6946564885496183	-0.8020989505247376	0.12743628185907047	-0.26686656671664166	1402.9304029304028	99.62737648694512	28.621855510171734	
1.771340592742468E12	6.239130434782608	-5.293478260869565	2.358695652173913	4.3877917414721725	-8.57211250748055	0.052663076002393776	3929.6703296703295	1916.4835164835163	1.0	8.75802478589935	114.18099679393762	-4.061068702290076	-0.7022900763358778	-1.5267175572519083	-0.7961019490254873	0.15442278860569714	-0.2638680659670165	1362.6373626373625	99.63305253282003	28.621855510171734	
1.7713405927620981E12	6.239130434782608	-5.33695652173913	2.402173913043478	4.409335727109515	-8.617594254937163	0.0718132854578097	3929.6703296703295	1916.4835164835163	1.0	8.75802478589935	114.18099679393762	-4.351145038167939	-0.9465648854961831	-1.282442748091603	-0.8020989505247376	0.12743628185907047	-0.25337331334332835	1339.9267399267399	99.63021450849551	28.621855510171734	
1.7713405927817283E12	6.260869565217391	-5.293478260869565	2.391304347826087	4.426092160383004	-8.586475164572112	0.08617594254937164	3906.227106227106	1884.9816849816848	1.0	8.75802478589935	114.18099679393762	-4.152671755725191	-0.4580152671755725	-0.916030534351145	-0.8065967016491754	0.13343328335832083	-0.2608695652173913	1341.3919413919414	99.62737648694512	28.621855510171734	
1.7713405928013584E12	6.260869565217391	-5.293478260869565	2.358695652173913	4.426092160383004	-8.569718731298623	0.06223818073010173	3929.6703296703295	1907.6923076923076	1.0	8.75802478589935	114.18099679393762	-4.229007633587786	-0.12213740458015267	-0.7786259541984732	-0.8020989505247376	0.1409295352323838	-0.25487256371814093	1377.2893772893772	99.62737648694512	28.621855510171734	
1.7713405928209888E12	6.282608695652174	-5.326086956521739	2.358695652173913	4.457211250748055	-8.591262716935967	0.059844404548174746	3929.6703296703295	1914.2857142857142	1.0	8.75802478589935	114.18099679393762	-4.122137404580153	0.2748091603053435	-1.0229007633587786	-0.8050974512743628	0.14992503748125938	-0.26836581709145424	1420.5128205128203	99.63021450849551	28.621855510171734	
1.771340592840619E12	6.25	-5.315217391304348	2.358695652173913	4.4667863554757625	-8.598444045481747	0.02872531418312388	3906.227106227106	1884.249084249084	1.0	8.752919554313282	114.24759405074366	-3.847328244274809	0.1984732824427481	-0.7786259541984732	-0.8110944527736131	0.15292353823088456	-0.25487256371814093	1468.8644688644688	99.62737648694512	28.621855510171734	
1.771340592860249E12	6.271739130434782	-5.293478260869565	2.358695652173913	4.440454817474566	-8.562537402752842	0.011968880909634948	3931.135531135531	1914.2857142857142	1.0	8.752919554313282	114.24759405074366	-4.122137404580153	0.366412213740458	-0.3969465648854962	-0.7991004497751124	0.1199400299850075	-0.25487256371814093	1510.6227106227104	99.62737648694512	28.621855510171734	
1.7713405928798792E12	6.293478260869565	-5.315217391304348	2.369565217391304	4.485936564931179	-8.586475164572112	0.026331538001196888	3929.6703296703295	1915.7509157509155	1.0	8.752919554313282	114.24759405074366	-4.519083969465648	1.0381679389312977	-0.07633587786259542	-0.7976011994002998	0.13193403298350825	-0.2578710644677661	1537.7289377289376	99.62737648694512	28.621855510171734	
1.7713405928995093E12	6.315217391304348	-5.293478260869565	2.358695652173913	4.49311789347696	-8.574506283662478	0.02872531418312388	3928.205128205128	1915.7509157509155	1.0	8.752919554313282	114.24759405074366	-4.6106870229007635	1.816793893129771	-0.12213740458015267	-0.800599700149925	0.136431784107946	-0.272863568215892	1542.8571428571427	99.62170045216678	28.621855510171734	
1.7713405929191394E12	6.293478260869565	-5.326086956521739	2.3260869565217392	4.4907241172950325	-8.584081388390185	0.00718132854578097	3904.7619047619046	1884.249084249084	1.0	8.747814322727214	114.31426903997665	-5.0534351145038165	2.8091603053435112	0.42748091603053434	-0.7961019490254873	0.12143928035982009	-0.2563718140929535	1518.6813186813185	99.63021450849551	28.621855510171734	
1.7713405929387695E12	6.315217391304348	-5.326086956521739	2.3260869565217392	4.509874326750449	-8.584081388390185	0.0047875523638539795	3916.4835164835163	1891.5750915750914	1.0	8.747814322727214	114.31426903997665	-4.885496183206107	3.7862595419847325	0.8396946564885496	-0.8020989505247376	0.1184407796101949	-0.25487256371814093	1468.131868131868	99.62737648694512	28.621855510171734	
1.7713405929583997E12	6.304347826086956	-5.33695652173913	2.369565217391304	4.481149012567325	-8.593656493117892	0.011968880909634948	3901.8315018315016	1875.4578754578754	1.0	8.747814322727214	114.31426903997665	-4.916030534351145	4.809160305343512	0.6870229007633587	-0.800599700149925	0.11394302848575712	-0.2563718140929535	1416.8498168498168	99.62737648694512	28.621855510171734	
1.7713405929780298E12	6.271739130434782	-5.315217391304348	2.3260869565217392	4.483542788749252	-8.603231597845602	0.009575104727707959	3929.6703296703295	1904.7619047619046	1.0	8.747814322727214	114.31426903997665	-5.236641221374046	5.877862595419847	0.8854961832061068	-0.800599700149925	0.13193403298350825	-0.2563718140929535	1367.7655677655678	99.62737648694512	28.621855510171734	
1.77134059299766E12	6.315217391304348	-5.3478260869565215	2.358695652173913	4.473967684021544	-8.615200478755236	0.009575104727707959	3907.6923076923076	1887.9120879120878	1.0	8.747814322727214	114.31426903997665	-5.557251908396946	6.580152671755725	0.549618320610687	-0.8050974512743628	0.13043478260869565	-0.2608695652173913	1325.2747252747251	99.6245384681689	28.621855510171734	
1.77134059301729E12	6.282608695652174	-5.33695652173913	2.358695652173913	4.457211250748055	-8.600837821663674	0.04308797127468582	3931.135531135531	1914.2857142857142	1.0	8.742709091141148	114.38102189781021	-5.66412213740458	7.145038167938931	0.8702290076335878	-0.8020989505247376	0.12593703148425786	-0.2623688155922039	1306.227106227106	99.61602442848495	28.621855510171734	
1.7713405930369202E12	6.25	-5.326086956521739	2.380434782608696	4.428485936564931	-8.608019150209456	0.038300418910831836	3929.6703296703295	1916.4835164835163	1.0	8.742709091141148	114.38102189781021	-5.6183206106870225	7.786259541984733	0.8549618320610687	-0.7976011994002998	0.12293853073463268	-0.2578710644677661	1295.970695970696	99.62170045216678	28.621855510171734	
1.7713405930565503E12	6.239130434782608	-5.33695652173913	2.402173913043478	4.404548174745661	-8.615200478755236	0.07899461400359066	3929.6703296703295	1916.4835164835163	1.0	8.742709091141148	114.38102189781021	-5.877862595419847	8.061068702290076	1.0687022900763359	-0.8050974512743628	0.1169415292353823	-0.25037481259370314	1295.970695970696	99.62170045216678	28.621855510171734	
1.7713405930761804E12	6.228260869565217	-5.33695652173913	2.4347826086956523	4.39736684619988	-8.600837821663674	0.12447636146020347	3929.6703296703295	1917.216117216117	1.0	8.737603859555078	114.4478527607362	-5.908396946564885	7.98473282442748	0.8396946564885496	-0.8035982008995503	0.13193403298350825	-0.25487256371814093	1299.6336996336995	99.61602442848495	28.621855510171734	
1.7713405930958105E12	6.217391304347826	-5.315217391304348	2.4239130434782608	4.373429084380611	-8.593656493117892	0.13165769000598443	3906.227106227106	1885.7142857142856	1.0	8.737603859555078	114.4478527607362	-5.526717557251908	8.213740458015266	0.916030534351145	-0.8050974512743628	0.13343328335832083	-0.2578710644677661	1301.8315018315018	99.6245384681689	28.621855510171734	
1.7713405931154407E12	6.206521739130435	-5.315217391304348	2.4130434782608696	4.366247755834829	-8.598444045481747	0.11250748055056851	3929.6703296703295	1907.6923076923076	1.0	8.737603859555078	114.4478527607362	-5.679389312977099	7.877862595419847	0.4580152671755725	-0.8095952023988006	0.14842578710644677	-0.2623688155922039	1306.227106227106	99.63021450849551	28.621855510171734	
1.771340593135071E12	6.184782608695652	-5.33695652173913	2.4347826086956523	4.399760622381807	-8.622381807301018	0.11968880909634949	3929.6703296703295	1914.2857142857142	1.0	8.737603859555078	114.4478527607362	-5.236641221374046	7.603053435114504	-0.015267175572519083	-0.7976011994002998	0.12593703148425786	-0.2518740629685157	1318.6813186813185	99.62737648694512	28.621855510171734	
1.7713405931547012E12	6.173913043478261	-5.380434782608695	2.467391304347826	4.368641532016756	-8.634350688210652	0.12926391382405744	3907.6923076923076	1890.8424908424906	1.0	8.732498627969012	114.51476176556562	-4.687022900763359	7.099236641221374	-0.1984732824427481	-0.8050974512743628	0.13043478260869565	-0.2653673163418291	1329.6703296703297	99.62170045216678	28.621855510171734	
1.7713405931743313E12	6.1521739130434785	-5.3478260869565215	2.4456521739130435	4.349491322561341	-8.653500897666069	0.15559545182525433	3931.135531135531	1915.7509157509155	1.0	8.732498627969012	114.51476176556562	-4.290076335877862	6.870229007633587	-0.8091603053435115	-0.8035982008995503	0.13343328335832083	-0.2773613193403298	1324.5421245421244	99.62170045216678	28.621855510171734	
1.7713405931939614E12	6.141304347826087	-5.3478260869565215	2.4456521739130435	4.313584679832435	-8.631956912028725	0.12208258527827648	3931.135531135531	1922.344322344322	1.0	8.732498627969012	114.51476176556562	-4.824427480916031	6.412213740458015	-0.9618320610687022	-0.8110944527736131	0.136431784107946	-0.2518740629685157	1326.007326007326	99.63021450849551	28.621855510171734	
1.7713405932135916E12	6.130434782608695	-5.358695652173913	2.4239130434782608	4.313584679832435	-8.624775583482943	0.12926391382405744	3929.6703296703295	1918.6813186813185	1.0	8.732498627969012	114.51476176556562	-4.824427480916031	6.106870229007633	-1.0381679389312977	-0.808095952023988	0.14992503748125938	-0.26836581709145424	1322.3443223443223	99.62737648694512	28.621855510171734	
1.7713405932332217E12	6.108695652173913	-5.3478260869565215	2.4456521739130435	4.277678037103531	-8.634350688210652	0.10293237582286056	3904.7619047619046	1884.9816849816848	1.0	8.732498627969012	114.51476176556562	-4.6106870229007635	5.923664122137405	-1.099236641221374	-0.8035982008995503	0.14392803598200898	-0.2698650674662669	1327.4725274725274	99.63021450849551	28.621855510171734	
1.7713405932528518E12	6.065217391304348	-5.3478260869565215	2.467391304347826	4.229802513464991	-8.615200478755236	0.12447636146020347	3922.344322344322	1899.6336996336995	1.0	8.727393396382944	114.58174904942966	-5.022900763358779	5.343511450381679	-1.3282442748091603	-0.8020989505247376	0.136431784107946	-0.2623688155922039	1328.937728937729	99.6245384681689	28.621855510171734	
1.771340593272482E12	6.043478260869565	-5.33695652173913	2.4565217391304346	4.167564332734889	-8.600837821663674	0.15080789946140036	3929.6703296703295	1912.087912087912	1.0	8.732498627969012	114.51476176556562	-5.267175572519084	4.0	-0.8854961832061068	-0.800599700149925	0.12593703148425786	-0.2653673163418291	1321.6117216117216	99.62170045216678	28.621855510171734	
1.771340593292112E12	6.043478260869565	-5.3478260869565215	2.4782608695652173	4.213046080191502	-8.622381807301018	0.14841412327947337	3929.6703296703295	1915.7509157509155	1.0	8.727393396382944	114.58174904942966	-5.129770992366412	3.83206106870229	-1.114503816793893	-0.8020989505247376	0.14842578710644677	-0.27136431784107945	1316.4835164835165	99.61318642080525	28.621855510171734	
1.7713405933117422E12	6.043478260869565	-5.3478260869565215	2.4782608695652173	4.19868342309994	-8.62716935966487	0.12208258527827648	3909.1575091575087	1885.7142857142856	1.0	8.727393396382944	114.58174904942966	-4.763358778625954	3.5877862595419847	-0.32061068702290074	-0.8065967016491754	0.12893553223388304	-0.2818590704647676	1310.6227106227104	99.6245384681689	28.621855510171734	
1.7713405933313723E12	6.0978260869565215	-5.391304347826087	2.467391304347826	4.241771394374626	-8.653500897666069	0.15559545182525433	3904.7619047619046	1875.4578754578754	1.0	8.727393396382944	114.58174904942966	-4.809160305343512	2.931297709923664	0.015267175572519083	-0.8110944527736131	0.12893553223388304	-0.2653673163418291	1294.5054945054944	99.62170045216678	28.621855510171734	
1.7713405933510024E12	6.065217391304348	-5.4021739130434785	2.4782608695652173	4.205864751645721	-8.670257330939556	0.19868342309994014	3931.135531135531	1910.6227106227104	1.0	8.727393396382944	114.58174904942966	-4.8396946564885495	2.4580152671755724	-0.5343511450381679	-0.8050974512743628	0.13193403298350825	-0.2623688155922039	1282.051282051282	99.62737648694512	28.621855510171734	
1.7713405933706326E12	6.065217391304348	-5.369565217391304	2.4565217391304346	4.217833632555356	-8.665469778575703	0.15559545182525433	3929.6703296703295	1915.018315018315	1.0	8.722288164796876	114.64881474978051	-4.427480916030534	1.2213740458015268	-1.2366412213740459	-0.8095952023988006	0.13793103448275862	-0.2623688155922039	1280.5860805860805	99.62737648694512	28.621855510171734	
1.7713405933902627E12	6.08695652173913	-5.380434782608695	2.4782608695652173	4.217833632555356	-8.665469778575703	0.1627767803710353	3904.7619047619046	1883.5164835164833	1.0	8.722288164796876	114.64881474978051	-4.8396946564885495	0.3053435114503817	-0.8549618320610687	-0.800599700149925	0.12893553223388304	-0.2653673163418291	1271.062271062271	99.62737648694512	28.621855510171734	
1.7713405934098928E12	6.141304347826087	-5.423913043478261	2.4891304347826084	4.292040694195093	-8.703770197486534	0.15320167564332735	3931.135531135531	1913.5531135531135	1.0	8.722288164796876	114.64881474978051	-4.65648854961832	0.13740458015267176	-1.297709923664122	-0.8125937031484257	0.14392803598200898	-0.2638680659670165	1263.7362637362637	99.62737648694512	28.621855510171734	
1.771340593429523E12	6.1521739130434785	-5.380434782608695	2.5	4.313584679832435	-8.701376421304607	0.20347097546379414	3929.6703296703295	1915.7509157509155	1.0	8.717182933210808	114.71595900439239	-4.305343511450381	-0.2900763358778626	-1.0534351145038168	-0.8035982008995503	0.12593703148425786	-0.2608695652173913	1266.6666666666665	99.62737648694512	28.621855510171734	
1.7713405934491533E12	6.076086956521739	-5.326086956521739	2.5	4.260921603830042	-8.62716935966487	0.19150209455415917	3929.6703296703295	1917.216117216117	1.0	8.717182933210808	114.71595900439239	-4.1679389312977095	0.0916030534351145	-1.129770992366412	-0.793103448275862	0.13793103448275862	-0.2593703148425787	1266.6666666666665	99.63305253282003	28.621855510171734	
1.7713405934687834E12	6.0978260869565215	-5.326086956521739	2.4891304347826084	4.24655894673848	-8.598444045481747	0.16756433273488927	3907.6923076923076	1891.5750915750914	1.0	8.717182933210808	114.71595900439239	-4.763358778625954	0.21374045801526717	-1.7862595419847327	-0.8050974512743628	0.13343328335832083	-0.2563718140929535	1263.003663003663	99.62170045216678	28.621855510171734	
1.7713405934884136E12	6.108695652173913	-5.33695652173913	2.5	4.241771394374626	-8.59605026929982	0.16756433273488927	3932.6007326007325	1910.6227106227104	1.0	8.722288164796876	114.64881474978051	-4.442748091603053	-0.5038167938931297	-1.3282442748091603	-0.800599700149925	0.15142428785607195	-0.2698650674662669	1265.9340659340658	99.6245384681689	28.621855510171734	
1.7713405935080437E12	6.1521739130434785	-5.33695652173913	2.4891304347826084	4.272890484739677	-8.629563135846798	0.17474566128067026	3931.135531135531	1921.6117216117216	1.0	8.717182933210808	114.71595900439239	-4.137404580152672	-1.3282442748091603	-0.7022900763358778	-0.7991004497751124	0.11244377811094453	-0.2623688155922039	1273.9926739926739	99.62737648694512	28.621855510171734	
1.7713405935276738E12	6.195652173913043	-5.358695652173913	2.5	4.320766008378216	-8.646319569120287	0.1891083183722322	3928.205128205128	1917.216117216117	1.0	8.717182933210808	114.71595900439239	-3.9083969465648853	-0.6564885496183206	-0.38167938931297707	-0.7976011994002998	0.13793103448275862	-0.2638680659670165	1287.179487179487	99.62737648694512	28.621855510171734	
1.771340593547304E12	6.163043478260869	-5.369565217391304	2.467391304347826	4.359066427289048	-8.639138240574505	0.17474566128067026	3904.7619047619046	1884.249084249084	1.0	8.71207770162474	114.78318195136244	-4.427480916030534	-0.061068702290076333	-0.6564885496183206	-0.8050974512743628	0.1394302848575712	-0.2698650674662669	1331.135531135531	99.62170045216678	28.621855510171734	
1.771340593566934E12	6.163043478260869	-5.369565217391304	2.4891304347826084	4.325553560742071	-8.63674446439258	0.15320167564332735	3929.6703296703295	1908.4249084249084	1.0	8.71207770162474	114.78318195136244	-3.9541984732824424	0.061068702290076333	-1.3435114503816794	-0.8035982008995503	0.14842578710644677	-0.26686656671664166	1431.5018315018315	99.63305253282003	28.621855510171734	
1.7713405935865642E12	6.206521739130435	-5.358695652173913	2.4782608695652173	4.3710353081986835	-8.639138240574505	0.15320167564332735	3929.6703296703295	1914.2857142857142	1.0	8.71207770162474	114.78318195136244	-3.801526717557252	0.41221374045801523	-2.1221374045801524	-0.8035982008995503	0.1199400299850075	-0.26836581709145424	1568.4981684981683	99.6245384681689	28.621855510171734	
1.7713405936061943E12	6.173913043478261	-5.358695652173913	2.4456521739130435	4.351885098743267	-8.639138240574505	0.14841412327947337	3929.6703296703295	1923.0769230769229	1.0	8.71207770162474	114.78318195136244	-3.7404580152671754	0.4427480916030534	-2.5343511450381677	-0.8065967016491754	0.14392803598200898	-0.272863568215892	1696.7032967032967	99.62737648694512	28.621855510171734	
1.7713405936258245E12	6.1521739130434785	-5.326086956521739	2.4891304347826084	4.308797127468582	-8.610412926391382	0.16756433273488927	3906.227106227106	1887.179487179487	1.0	8.706972470038671	114.8504837291117	-3.6946564885496183	0.12213740458015267	-3.099236641221374	-0.7961019490254873	0.13193403298350825	-0.26836581709145424	1797.069597069597	99.62737648694512	28.621855510171734	
1.7713405936454546E12	6.08695652173913	-5.33695652173913	2.4347826086956523	4.258527827648114	-8.634350688210652	0.11968880909634949	3929.6703296703295	1908.4249084249084	1.0	8.706972470038671	114.8504837291117	-3.877862595419847	-0.8854961832061068	-3.709923664122137	-0.8065967016491754	0.13343328335832083	-0.27136431784107945	1857.142857142857	99.62737648694512	28.621855510171734	
1.7713405936650847E12	6.315217391304348	-5.423913043478261	2.4456521739130435	4.435667265110712	-8.696588868940754	0.12208258527827648	3929.6703296703295	1915.018315018315	1.0	8.706972470038671	114.8504837291117	-4.091603053435114	-1.6030534351145038	-3.145038167938931	-0.8035982008995503	0.12443778110944527	-0.26836581709145424	1860.07326007326	99.63021450849551	28.621855510171734	
1.7713405936847148E12	6.163043478260869	-5.423913043478261	2.4239130434782608	4.306403351286654	-8.696588868940754	0.12687013764213045	3929.6703296703295	1916.4835164835163	1.0	8.706972470038671	114.8504837291117	-4.152671755725191	-2.6564885496183206	-4.061068702290076	-0.8050974512743628	0.13193403298350825	-0.26836581709145424	1802.197802197802	99.63103240397157	28.626880361721852	
1.771340593704345E12	6.1521739130434785	-5.434782608695652	2.4239130434782608	4.2513464991023335	-8.701376421304607	0.10771992818671454	3903.296703296703	1878.3882783882782	1.0	8.706972470038671	114.8504837291117	-3.9236641221374042	-3.1755725190839694	-4.595419847328244	-0.8035982008995503	0.12593703148425786	-0.25487256371814093	1698.168498168498	99.62819435926511	28.626880361721852	
1.771340593723975E12	6.108695652173913	-5.413043478260869	2.4347826086956523	4.304009575104728	-8.672651107121483	0.13883901855176542	3929.6703296703295	1905.4945054945053	1.0	8.701867238452603	114.91786447638604	-4.1679389312977095	-1.4961832061068703	-5.068702290076335	-0.8035982008995503	0.12293853073463268	-0.27436281859070466	1572.8937728937728	99.62819435926511	28.626880361721852	
1.7713405937436052E12	6.065217391304348	-5.3478260869565215	2.4347826086956523	4.196289646918013	-8.64392579293836	0.10532615200478755	3901.8315018315016	1879.8534798534797	1.0	8.701867238452603	114.91786447638604	-4.427480916030534	0.16793893129770993	-4.198473282442748	-0.808095952023988	0.12893553223388304	-0.2638680659670165	1426.3736263736262	99.62251827817472	28.626880361721852	
1.7713405937632356E12	6.043478260869565	-5.315217391304348	2.4130434782608696	4.19868342309994	-8.598444045481747	0.06941950927588271	3929.6703296703295	1905.4945054945053	1.0	8.696762006866535	114.98532433225712	-5.083969465648854	0.732824427480916	-3.068702290076336	-0.8050974512743628	0.15142428785607195	-0.26836581709145424	1314.2857142857142	99.62535631733283	28.626880361721852	
1.7713405937828657E12	6.076086956521739	-5.326086956521739	2.4456521739130435	4.169958108916816	-8.581687612208258	0.08378216636744464	3904.7619047619046	1881.3186813186812	1.0	8.696762006866535	114.98532433225712	-5.572519083969466	0.6412213740458015	-1.7862595419847327	-0.7961019490254873	0.1199400299850075	-0.2638680659670165	1257.8754578754579	99.62251827817472	28.626880361721852	
1.7713405938024958E12	6.076086956521739	-5.315217391304348	2.4565217391304346	4.2274087372830635	-8.58886894075404	0.12926391382405744	3929.6703296703295	1906.9597069597069	1.0	8.696762006866535	114.98532433225712	-6.259541984732824	0.2900763358778626	-0.3969465648854962	-0.8185907046476761	0.12443778110944527	-0.25487256371814093	1239.5604395604396	99.63103240397157	28.626880361721852	
1.771340593822126E12	6.108695652173913	-5.326086956521739	2.4565217391304346	4.258527827648114	-8.586475164572112	0.1412327947336924	3929.6703296703295	1913.5531135531135	1.0	8.701867238452603	114.91786447638604	-6.045801526717557	0.21374045801526717	0.15267175572519084	-0.8095952023988006	0.13193403298350825	-0.2563718140929535	1265.2014652014652	99.62535631733283	28.626880361721852	
1.771340593841756E12	6.184782608695652	-5.358695652173913	2.4130434782608696	4.330341113105924	-8.631956912028725	0.10053859964093358	3928.205128205128	1915.018315018315	1.0	8.696762006866535	114.98532433225712	-6.427480916030534	0.15267175572519084	0.5190839694656488	-0.8110944527736131	0.1454272863568216	-0.2578710644677661	1323.076923076923	99.62535631733283	28.626880361721852	
1.7713405938613862E12	6.25	-5.369565217391304	2.4130434782608696	4.404548174745661	-8.624775583482943	0.11011370436864153	3903.296703296703	1878.3882783882782	1.0	8.69165677528047	115.05286343612335	-6.061068702290076	0.16793893129770993	0.0	-0.8095952023988006	0.1184407796101949	-0.27136431784107945	1402.9304029304028	99.62251827817472	28.626880361721852	
1.7713405938810164E12	6.293478260869565	-5.380434782608695	2.4565217391304346	4.450029922202274	-8.665469778575703	0.12447636146020347	3928.205128205128	1905.4945054945053	1.0	8.69165677528047	115.05286343612335	-5.419847328244274	0.9007633587786259	-0.4580152671755725	-0.800599700149925	0.1199400299850075	-0.2593703148425787	1480.5860805860805	99.62535631733283	28.626880361721852	
1.7713405939006465E12	6.293478260869565	-5.380434782608695	2.4239130434782608	4.478755236385398	-8.66786355475763	0.12926391382405744	3901.8315018315016	1879.8534798534797	1.0	8.69165677528047	115.05286343612335	-5.251908396946565	1.83206106870229	-1.1450381679389312	-0.8065967016491754	0.1184407796101949	-0.26686656671664166	1517.9487179487178	99.62819435926511	28.626880361721852	
1.7713405939202766E12	6.282608695652174	-5.358695652173913	2.4347826086956523	4.473967684021544	-8.63674446439258	0.10053859964093358	3929.6703296703295	1906.227106227106	1.0	8.69165677528047	115.05286343612335	-4.748091603053435	2.427480916030534	-2.091603053435114	-0.808095952023988	0.13193403298350825	-0.2638680659670165	1529.6703296703295	99.62819435926511	28.626880361721852	
1.7713405939399067E12	6.228260869565217	-5.358695652173913	2.4130434782608696	4.442848593656493	-8.658288450029922	0.0933572710951526	3906.227106227106	1882.051282051282	1.0	8.686551543694401	115.12048192771084	-4.8396946564885495	3.66412213740458	-2.8854961832061066	-0.8050974512743628	0.13793103448275862	-0.2638680659670165	1520.14652014652	99.62819435926511	28.626880361721852	
1.7713405939595369E12	6.184782608695652	-5.391304347826087	2.380434782608696	4.385397965290245	-8.648713345302214	0.10532615200478755	3929.6703296703295	1906.227106227106	1.0	8.686551543694401	115.12048192771084	-4.748091603053435	4.091603053435114	-3.312977099236641	-0.8020989505247376	0.16041979010494753	-0.26836581709145424	1488.6446886446886	99.62819435926511	28.626880361721852	
1.771340593979167E12	6.1521739130434785	-5.369565217391304	2.402173913043478	4.34230999401556	-8.651107121484142	0.09575104727707959	3929.6703296703295	1913.5531135531135	1.0	8.686551543694401	115.12048192771084	-4.748091603053435	4.442748091603053	-3.49618320610687	-0.808095952023988	0.13193403298350825	-0.2638680659670165	1438.8278388278388	99.62251827817472	28.626880361721852	
1.771340593998797E12	6.141304347826087	-5.380434782608695	2.391304347826087	4.2752842609216035	-8.648713345302214	0.07899461400359066	3929.6703296703295	1915.7509157509155	1.0	8.686551543694401	115.12048192771084	-4.885496183206107	4.473282442748092	-3.297709923664122	-0.8050974512743628	0.12743628185907047	-0.2638680659670165	1397.8021978021977	99.63103240397157	28.626880361721852	
1.7713405940184272E12	6.065217391304348	-5.4021739130434785	2.4239130434782608	4.236983842010772	-8.653500897666069	0.10293237582286056	3929.6703296703295	1916.4835164835163	1.0	8.686551543694401	115.12048192771084	-5.633587786259541	4.824427480916031	-2.8244274809160306	-0.7976011994002998	0.13793103448275862	-0.27136431784107945	1364.8351648351647	99.63103240397157	28.626880361721852	
1.7713405940380574E12	6.032608695652174	-5.369565217391304	2.4130434782608696	4.215439856373429	-8.651107121484142	0.10771992818671454	3925.274725274725	1915.018315018315	1.0	8.681446312108333	115.18817994707439	-5.251908396946565	4.580152671755725	-2.8854961832061066	-0.8125937031484257	0.13193403298350825	-0.27586206896551724	1322.3443223443223	99.62535631733283	28.626880361721852	
1.7713405940576875E12	6.032608695652174	-5.369565217391304	2.4347826086956523	4.177139437462597	-8.629563135846798	0.08856971873129862	3900.3663003663	1876.923076923077	1.0	8.681446312108333	115.18817994707439	-5.511450381679389	3.9847328244274807	-2.3664122137404577	-0.8035982008995503	0.12593703148425786	-0.27136431784107945	1283.5164835164835	99.63103240397157	28.626880361721852	
1.7713405940773179E12	6.032608695652174	-5.369565217391304	2.4347826086956523	4.184320766008378	-8.651107121484142	0.11490125673249552	3929.6703296703295	1904.7619047619046	1.0	8.681446312108333	115.18817994707439	-5.450381679389313	3.49618320610687	-1.8015267175572518	-0.8020989505247376	0.13493253373313344	-0.2608695652173913	1270.3296703296703	99.62819435926511	28.626880361721852	
1.771340594096948E12	6.054347826086956	-5.380434782608695	2.4347826086956523	4.169958108916816	-8.663076002393776	0.11490125673249552	3906.227106227106	1882.051282051282	1.0	8.681446312108333	115.18817994707439	-5.633587786259541	2.6412213740458013	-1.1908396946564885	-0.8110944527736131	0.13043478260869565	-0.26686656671664166	1276.1904761904761	99.62535631733283	28.626880361721852	
1.7713405941165781E12	6.065217391304348	-5.358695652173913	2.4347826086956523	4.225014961101137	-8.64392579293836	0.11490125673249552	3903.296703296703	1868.8644688644688	1.0	8.676341080522267	115.2559576345984	-5.526717557251908	1.8625954198473282	-0.7938931297709924	-0.8050974512743628	0.12293853073463268	-0.2593703148425787	1283.5164835164835	99.63103240397157	28.626880361721852	
1.7713405941362083E12	6.108695652173913	-5.391304347826087	2.4347826086956523	4.256134051466188	-8.67504488330341	0.10532615200478755	3931.135531135531	1909.1575091575091	1.0	8.676341080522267	115.2559576345984	-5.465648854961832	1.4961832061068703	-0.5038167938931297	-0.8065967016491754	0.12293853073463268	-0.2638680659670165	1291.5750915750914	99.62251827817472	28.626880361721852	
1.7713405941558384E12	6.0978260869565215	-5.391304347826087	2.4130434782608696	4.280071813285458	-8.655894673847994	0.11250748055056851	3928.205128205128	1913.5531135531135	1.0	8.676341080522267	115.2559576345984	-5.1603053435114505	1.4045801526717556	-0.7175572519083969	-0.8065967016491754	0.12293853073463268	-0.2608695652173913	1292.3076923076922	99.62819435926511	28.626880361721852	
1.7713405941754685E12	6.130434782608695	-5.380434782608695	2.4347826086956523	4.272890484739677	-8.679832435667265	0.07660083782166367	3931.135531135531	1922.344322344322	1.0	8.671235848936197	115.32381513099794	-5.022900763358779	1.465648854961832	-0.3969465648854962	-0.8050974512743628	0.12293853073463268	-0.2578710644677661	1302.5641025641025	99.62535631733283	28.626880361721852	
1.7713405941950986E12	6.119565217391304	-5.380434782608695	2.4239130434782608	4.284859365649312	-8.67504488330341	0.07899461400359066	3931.135531135531	1924.5421245421244	1.0	8.671235848936197	115.32381513099794	-4.885496183206107	1.5725190839694656	-0.7480916030534351	-0.8020989505247376	0.12893553223388304	-0.26686656671664166	1315.018315018315	99.62251827817472	28.626880361721852	
1.7713405942147288E12	6.119565217391304	-5.380434782608695	2.402173913043478	4.277678037103531	-8.66786355475763	0.10293237582286056	3901.8315018315016	1885.7142857142856	1.0	8.671235848936197	115.32381513099794	-5.206106870229007	0.7633587786259541	-1.4198473282442747	-0.8200899550224887	0.1454272863568216	-0.26686656671664166	1328.937728937729	99.62251827817472	28.626880361721852	
1.771340594234359E12	6.130434782608695	-5.391304347826087	2.4130434782608696	4.258527827648114	-8.66786355475763	0.07420706163973669	3929.6703296703295	1907.6923076923076	1.0	8.666130617350131	115.39175257731958	-4.564885496183206	0.9465648854961831	-1.0381679389312977	-0.808095952023988	0.15442278860569714	-0.2638680659670165	1317.9487179487178	99.62251827817472	28.626880361721852	
1.771340594253989E12	6.108695652173913	-5.391304347826087	2.4347826086956523	4.263315380011969	-8.660682226211849	0.07660083782166367	3906.227106227106	1882.7838827838827	1.0	8.671235848936197	115.32381513099794	-4.580152671755725	0.7175572519083969	-1.297709923664122	-0.8050974512743628	0.14692653673163417	-0.2578710644677661	1306.227106227106	99.62819435926511	28.626880361721852	
1.7713405942736191E12	6.130434782608695	-5.369565217391304	2.391304347826087	4.253740275284261	-8.672651107121483	0.09814482345900657	3903.296703296703	1868.8644688644688	1.0	8.666130617350131	115.39175257731958	-4.122137404580153	0.42748091603053434	-1.3587786259541985	-0.7991004497751124	0.13343328335832083	-0.272863568215892	1301.8315018315018	99.62819435926511	28.626880361721852	
1.7713405942932493E12	6.076086956521739	-5.358695652173913	2.4347826086956523	4.248952722920407	-8.672651107121483	0.09814482345900657	3929.6703296703295	1903.296703296703	1.0	8.666130617350131	115.39175257731958	-4.076335877862595	0.22900763358778625	-0.9923664122137404	-0.8020989505247376	0.12593703148425786	-0.272863568215892	1298.9010989010987	99.62819435926511	28.626880361721852	
1.7713405943128794E12	6.08695652173913	-5.380434782608695	2.4239130434782608	4.24655894673848	-8.648713345302214	0.0933572710951526	3929.6703296703295	1912.8205128205127	1.0	8.661025385764063	115.45977011494253	-4.213740458015267	0.15267175572519084	-1.3740458015267174	-0.8065967016491754	0.13043478260869565	-0.25487256371814093	1290.10989010989	99.62535631733283	28.626880361721852	
1.7713405943325095E12	6.08695652173913	-5.380434782608695	2.4130434782608696	4.234590065828845	-8.641532016756432	0.11490125673249552	3903.296703296703	1876.1904761904761	1.0	8.666130617350131	115.39175257731958	-4.030534351145038	-0.061068702290076333	-1.2366412213740459	-0.8050974512743628	0.12293853073463268	-0.272863568215892	1295.2380952380952	99.62535631733283	28.626880361721852	
1.7713405943521396E12	6.0978260869565215	-5.369565217391304	2.380434782608696	4.236983842010772	-8.62716935966487	0.06463195691202872	3917.948717948718	1890.1098901098899	1.0	8.666130617350131	115.39175257731958	-4.030534351145038	-0.6870229007633587	-1.129770992366412	-0.808095952023988	0.1424287856071964	-0.2653673163418291	1311.3553113553112	99.62819435926511	28.626880361721852	
1.7713405943717698E12	6.119565217391304	-5.369565217391304	2.402173913043478	4.260921603830042	-8.648713345302214	0.05505685218432076	3903.296703296703	1870.3296703296703	1.0	8.661025385764063	115.45977011494253	-4.076335877862595	-0.8091603053435115	-1.0076335877862594	-0.808095952023988	0.12593703148425786	-0.2638680659670165	1323.8095238095236	99.62251827817472	28.626880361721852	
1.7713405943914001E12	6.08695652173913	-5.380434782608695	2.4239130434782608	4.260921603830042	-8.648713345302214	0.09096349491322561	3928.205128205128	1902.5641025641025	1.0	8.661025385764063	115.45977011494253	-3.877862595419847	-0.7633587786259541	-0.366412213740458	-0.8095952023988006	0.13343328335832083	-0.26836581709145424	1331.8681318681317	99.61968024179079	28.626880361721852	
1.7713405944110303E12	6.0978260869565215	-5.380434782608695	2.391304347826087	4.234590065828845	-8.663076002393776	0.08138839018551765	3906.227106227106	1881.3186813186812	1.0	8.655920154177995	115.52786788557947	-3.8931297709923665	-0.9618320610687022	-0.6717557251908397	-0.8020989505247376	0.1424287856071964	-0.2578710644677661	1332.6007326007325	99.62819435926511	28.626880361721852	
1.7713405944306604E12	6.119565217391304	-5.380434782608695	2.391304347826087	4.265709156193895	-8.646319569120287	0.031119090365050867	3929.6703296703295	1906.227106227106	1.0	8.655920154177995	115.52786788557947	-3.66412213740458	-2.1221374045801524	-0.6564885496183206	-0.8020989505247376	0.14842578710644677	-0.2698650674662669	1323.8095238095236	99.62819435926511	28.626880361721852	
1.7713405944502905E12	6.141304347826087	-5.380434782608695	2.4130434782608696	4.301615798922801	-8.663076002393776	0.07660083782166367	3931.135531135531	1919.4139194139193	1.0	8.655920154177995	115.52786788557947	-3.9541984732824424	-2.4122137404580153	-0.5038167938931297	-0.8035982008995503	0.14992503748125938	-0.2638680659670165	1315.018315018315	99.62819435926511	28.626880361721852	
1.7713405944699207E12	6.1521739130434785	-5.423913043478261	2.402173913043478	4.330341113105924	-8.687013764213045	0.06941950927588271	3928.205128205128	1916.4835164835163	1.0	8.655920154177995	115.52786788557947	-4.030534351145038	-2.5343511450381677	-0.7175572519083969	-0.808095952023988	0.13043478260869565	-0.2563718140929535	1302.5641025641025	99.62251827817472	28.626880361721852	
1.7713405944895508E12	6.130434782608695	-5.369565217391304	2.4347826086956523	4.31837223219629	-8.663076002393776	0.11250748055056851	3903.296703296703	1878.3882783882782	1.0	8.650814922591927	115.59604603127767	-3.7404580152671754	-2.351145038167939	-1.129770992366412	-0.8065967016491754	0.13493253373313344	-0.2563718140929535	1288.6446886446886	99.62535631733283	28.626880361721852	
1.771340594509181E12	6.0978260869565215	-5.326086956521739	2.4239130434782608	4.263315380011969	-8.600837821663674	0.11011370436864153	3928.205128205128	1904.7619047619046	1.0	8.650814922591927	115.59604603127767	-3.9389312977099236	-1.5725190839694656	-1.2519083969465647	-0.8020989505247376	0.14842578710644677	-0.26836581709145424	1274.7252747252746	99.62819435926511	28.626880361721852	
1.771340594528811E12	6.130434782608695	-5.358695652173913	2.402173913043478	4.284859365649312	-8.608019150209456	0.09096349491322561	3931.135531135531	1919.4139194139193	1.0	8.650814922591927	115.59604603127767	-3.679389312977099	-2.2748091603053435	-1.5114503816793892	-0.8020989505247376	0.12293853073463268	-0.2608695652173913	1266.6666666666665	99.62535631733283	28.626880361721852	
1.7713405945484412E12	6.130434782608695	-5.358695652173913	2.391304347826087	4.292040694195093	-8.63674446439258	0.08138839018551765	3929.6703296703295	1917.9487179487178	1.0	8.650814922591927	115.59604603127767	-3.297709923664122	-2.732824427480916	-1.5725190839694656	-0.8050974512743628	0.1184407796101949	-0.2518740629685157	1279.120879120879	99.63387045145221	28.626880361721852	
1.7713405945680713E12	6.130434782608695	-5.369565217391304	2.4130434782608696	4.304009575104728	-8.624775583482943	0.1172950329144225	3909.1575091575087	1886.4468864468863	1.0	8.650814922591927	115.59604603127767	-2.8702290076335877	-2.5801526717557253	-1.1603053435114503	-0.8095952023988006	0.12743628185907047	-0.2638680659670165	1289.3772893772893	99.62251827817472	28.626880361721852	
1.7713405945877014E12	6.173913043478261	-5.358695652173913	2.4130434782608696	4.337522441651705	-8.63674446439258	0.09814482345900657	3903.296703296703	1870.3296703296703	1.0	8.645709691005859	115.66430469441984	-2.396946564885496	-2.5801526717557253	-1.1603053435114503	-0.808095952023988	0.1424287856071964	-0.2578710644677661	1303.2967032967033	99.62535631733283	28.626880361721852	
1.7713405946073315E12	6.141304347826087	-5.380434782608695	2.369565217391304	4.313584679832435	-8.651107121484142	0.06702573309395571	3929.6703296703295	1896.7032967032965	1.0	8.645709691005859	115.66430469441984	-2.4580152671755724	-2.213740458015267	-0.7022900763358778	-0.8035982008995503	0.12143928035982009	-0.2653673163418291	1340.6593406593406	99.63103240397157	28.626880361721852	
1.7713405946269617E12	6.1521739130434785	-5.380434782608695	2.380434782608696	4.320766008378216	-8.682226211849192	0.05505685218432076	3928.205128205128	1909.8901098901097	1.0	8.645709691005859	115.66430469441984	-2.427480916030534	-1.6946564885496183	-1.4351145038167938	-0.8095952023988006	0.14842578710644677	-0.26686656671664166	1431.5018315018315	99.62819435926511	28.626880361721852	
1.7713405946465918E12	6.173913043478261	-5.413043478260869	2.380434782608696	4.306403351286654	-8.687013764213045	0.04308797127468582	3929.6703296703295	1915.018315018315	1.0	8.645709691005859	115.66430469441984	-2.4580152671755724	-1.6793893129770991	-1.6335877862595418	-0.815592203898051	0.13493253373313344	-0.2623688155922039	1563.3699633699632	99.62819435926511	28.626880361721852	
1.771340594666222E12	6.1521739130434785	-5.380434782608695	2.4130434782608696	4.327947336923997	-8.689407540394972	0.06223818073010173	3926.7399267399264	1909.8901098901097	1.0	8.645709691005859	115.66430469441984	-2.763358778625954	-1.8015267175572518	-1.8015267175572518	-0.793103448275862	0.13043478260869565	-0.2623688155922039	1687.179487179487	99.62251827817472	28.626880361721852	
1.771340594685852E12	6.130434782608695	-5.3478260869565215	2.391304347826087	4.311190903650509	-8.629563135846798	0.05745062836624776	3900.3663003663	1874.7252747252746	1.0	8.640604459419793	115.73264401772525	-2.748091603053435	-1.6030534351145038	-1.984732824427481	-0.808095952023988	0.1409295352323838	-0.2698650674662669	1773.6263736263736	99.62170045216678	28.621855510171734	
1.7713405947054824E12	6.173913043478261	-5.380434782608695	2.380434782608696	4.296828246558946	-8.653500897666069	0.038300418910831836	3928.205128205128	1904.0293040293038	1.0	8.640604459419793	115.73264401772525	-2.396946564885496	-1.7099236641221374	-2.3053435114503817	-0.7991004497751124	0.13493253373313344	-0.27136431784107945	1818.3150183150183	99.62737648694512	28.621855510171734	
1.7713405947251125E12	6.141304347826087	-5.380434782608695	2.402173913043478	4.31837223219629	-8.651107121484142	0.08138839018551765	3906.227106227106	1881.3186813186812	1.0	8.640604459419793	115.73264401772525	-2.687022900763359	-1.0534351145038168	-1.8015267175572518	-0.8110944527736131	0.15442278860569714	-0.2563718140929535	1818.3150183150183	99.63021450849551	28.621855510171734	
1.7713405947447427E12	6.0978260869565215	-5.380434782608695	2.391304347826087	4.260921603830042	-8.62716935966487	0.09575104727707959	3929.6703296703295	1906.227106227106	1.0	8.640604459419793	115.73264401772525	-2.427480916030534	-0.8091603053435115	-1.8015267175572518	-0.800599700149925	0.1424287856071964	-0.2563718140929535	1765.5677655677655	99.63305253282003	28.621855510171734	
1.7713405947643728E12	6.119565217391304	-5.380434782608695	2.402173913043478	4.229802513464991	-8.655894673847994	0.06941950927588271	3928.205128205128	1912.8205128205127	1.0	8.640604459419793	115.73264401772525	-2.381679389312977	-1.2213740458015268	-1.8015267175572518	-0.8035982008995503	0.136431784107946	-0.2653673163418291	1663.7362637362637	99.62170045216678	28.621855510171734	
1.771340594784003E12	6.141304347826087	-5.4021739130434785	2.4130434782608696	4.304009575104728	-8.670257330939556	0.08856971873129862	3928.205128205128	1915.018315018315	1.0	8.640604459419793	115.73264401772525	-2.5801526717557253	-0.8244274809160305	-1.5725190839694656	-0.8035982008995503	0.1454272863568216	-0.24887556221889054	1537.7289377289376	99.6245384681689	28.621855510171734	
1.771340594803633E12	6.108695652173913	-5.380434782608695	2.3478260869565215	4.292040694195093	-8.648713345302214	0.09814482345900657	3901.8315018315016	1882.7838827838827	1.0	8.635499227833725	115.80106414425066	-2.763358778625954	-1.3129770992366412	-1.2213740458015268	-0.8050974512743628	0.15292353823088456	-0.2698650674662669	1430.03663003663	99.62737648694512	28.621855510171734	
1.7713405948232632E12	6.108695652173913	-5.3478260869565215	2.391304347826087	4.277678037103531	-8.631956912028725	0.08617594254937164	3907.6923076923076	1881.3186813186812	1.0	8.635499227833725	115.80106414425066	-2.4580152671755724	-0.9007633587786259	-1.099236641221374	-0.8020989505247376	0.13793103448275862	-0.272863568215892	1345.054945054945	99.62737648694512	28.621855510171734	
1.7713405948428933E12	6.0978260869565215	-5.358695652173913	2.402173913043478	4.27049670855775	-8.624775583482943	0.08378216636744464	3928.205128205128	1906.227106227106	1.0	8.630393996247655	115.8695652173913	-2.045801526717557	-1.2061068702290076	-0.9465648854961831	-0.8035982008995503	0.12443778110944527	-0.26836581709145424	1280.5860805860805	99.6245384681689	28.621855510171734	
1.7713405948625234E12	6.0978260869565215	-5.369565217391304	2.4239130434782608	4.263315380011969	-8.634350688210652	0.08378216636744464	3928.205128205128	1912.8205128205127	1.0	8.635499227833725	115.80106414425066	-2.4427480916030535	-1.2366412213740459	-1.2519083969465647	-0.800599700149925	0.136431784107946	-0.26686656671664166	1253.4798534798533	99.6245384681689	28.621855510171734	
1.7713405948821536E12	6.108695652173913	-5.358695652173913	2.391304347826087	4.272890484739677	-8.63674446439258	0.05505685218432076	3904.7619047619046	1883.5164835164833	1.0	8.635499227833725	115.80106414425066	-2.549618320610687	-1.8015267175572518	-1.1450381679389312	-0.8020989505247376	0.1394302848575712	-0.2608695652173913	1265.2014652014652	99.62737648694512	28.621855510171734	
1.7713405949017837E12	6.08695652173913	-5.380434782608695	2.3369565217391304	4.253740275284261	-8.658288450029922	0.047875523638539794	3929.6703296703295	1906.9597069597069	1.0	8.630393996247655	115.8695652173913	-2.549618320610687	-1.7862595419847327	-1.4198473282442747	-0.8050974512743628	0.12743628185907047	-0.2563718140929535	1301.8315018315018	99.62737648694512	28.621855510171734	
1.7713405949214138E12	6.108695652173913	-5.4021739130434785	2.358695652173913	4.272890484739677	-8.687013764213045	0.052663076002393776	3929.6703296703295	1914.2857142857142	1.0	8.630393996247655	115.8695652173913	-2.595419847328244	-1.8778625954198473	-1.5877862595419847	-0.800599700149925	0.12593703148425786	-0.25487256371814093	1349.4505494505493	99.6245384681689	28.621855510171734	
1.771340594941044E12	6.0978260869565215	-5.380434782608695	2.391304347826087	4.232196289646918	-8.66786355475763	0.08856971873129862	3928.205128205128	1915.018315018315	1.0	8.630393996247655	115.8695652173913	-2.8091603053435112	-2.0763358778625953	-1.4961832061068703	-0.7961019490254873	0.13043478260869565	-0.2608695652173913	1405.128205128205	99.62170045216678	28.621855510171734	
1.771340594960674E12	6.08695652173913	-5.358695652173913	2.4130434782608696	4.256134051466188	-8.648713345302214	0.06941950927588271	3929.6703296703295	1916.4835164835163	1.0	8.625288764661587	115.93814738088192	-2.5801526717557253	-2.595419847328244	-2.0	-0.7976011994002998	0.13343328335832083	-0.2698650674662669	1451.2820512820513	99.62737648694512	28.621855510171734	
1.7713405949803042E12	6.08695652173913	-5.369565217391304	2.391304347826087	4.220227408737283	-8.648713345302214	0.052663076002393776	3929.6703296703295	1917.216117216117	1.0	8.625288764661587	115.93814738088192	-2.5343511450381677	-2.610687022900763	-2.0	-0.808095952023988	0.13343328335832083	-0.2638680659670165	1487.179487179487	99.61318642080525	28.621855510171734	
1.7713405949999343E12	6.108695652173913	-5.391304347826087	2.402173913043478	4.258527827648114	-8.653500897666069	0.07660083782166367	3901.8315018315016	1883.5164835164833	1.0	8.625288764661587	115.93814738088192	-2.33587786259542	-2.8854961832061066	-2.4885496183206106	-0.8050974512743628	0.15442278860569714	-0.2638680659670165	1510.6227106227104	99.6245384681689	28.621855510171734	
1.7713405950195647E12	6.08695652173913	-5.3478260869565215	2.4347826086956523	4.253740275284261	-8.653500897666069	0.10293237582286056	3929.6703296703295	1906.9597069597069	1.0	8.625288764661587	115.93814738088192	-1.9694656488549618	-3.0839694656488548	-2.2900763358778624	-0.7991004497751124	0.1199400299850075	-0.2518740629685157	1491.5750915750914	99.62737648694512	28.621855510171734	
1.7713405950391948E12	6.0978260869565215	-5.380434782608695	2.4347826086956523	4.239377618192699	-8.655894673847994	0.10293237582286056	3906.227106227106	1882.7838827838827	1.0	8.625288764661587	115.93814738088192	-1.9389312977099236	-3.2213740458015265	-2.259541984732824	-0.8020989505247376	0.13343328335832083	-0.2623688155922039	1442.4908424908424	99.6245384681689	28.621855510171734	
1.771340595058825E12	6.108695652173913	-5.380434782608695	2.4347826086956523	4.265709156193895	-8.679832435667265	0.12447636146020347	3931.135531135531	1913.5531135531135	1.0	8.620183533075519	116.00681077879774	-1.5877862595419847	-3.282442748091603	-2.396946564885496	-0.7991004497751124	0.136431784107946	-0.2623688155922039	1392.6739926739926	99.62170045216678	28.621855510171734	
1.771340595078455E12	6.0978260869565215	-5.4021739130434785	2.4347826086956523	4.27049670855775	-8.67504488330341	0.10053859964093358	3929.6703296703295	1915.7509157509155	1.0	8.620183533075519	116.00681077879774	-2.045801526717557	-3.2671755725190836	-2.595419847328244	-0.8065967016491754	0.12893553223388304	-0.25487256371814093	1371.4285714285713	99.62170045216678	28.621855510171734	
1.7713405950980852E12	6.0978260869565215	-5.434782608695652	2.4456521739130435	4.248952722920407	-8.708557749850389	0.11490125673249552	3929.6703296703295	1916.4835164835163	1.0	8.625288764661587	115.93814738088192	-1.5877862595419847	-3.618320610687023	-3.099236641221374	-0.8065967016491754	0.12593703148425786	-0.2563718140929535	1357.5091575091574	99.6245384681689	28.621855510171734	
1.7713405951177153E12	6.065217391304348	-5.434782608695652	2.4782608695652173	4.22262118491921	-8.718132854578096	0.13405146618791142	3929.6703296703295	1917.216117216117	1.0	8.620183533075519	116.00681077879774	-1.2213740458015268	-3.8625954198473282	-3.450381679389313	-0.7901049475262368	0.12443778110944527	-0.25337331334332835	1339.194139194139	99.62170045216678	28.621855510171734	
1.7713405951373455E12	6.054347826086956	-5.445652173913043	2.4456521739130435	4.213046080191502	-8.6918013165769	0.12447636146020347	3929.6703296703295	1917.216117216117	1.0	8.620183533075519	116.00681077879774	-0.9618320610687022	-4.305343511450381	-3.4045801526717554	-0.8035982008995503	0.13343328335832083	-0.26686656671664166	1318.6813186813185	99.62737648694512	28.621855510171734	
1.7713405951569756E12	6.065217391304348	-5.445652173913043	2.4456521739130435	4.225014961101137	-8.742070616397367	0.12687013764213045	3929.6703296703295	1917.216117216117	1.0	8.620183533075519	116.00681077879774	-0.5954198473282443	-4.641221374045801	-3.32824427480916	-0.8035982008995503	0.13193403298350825	-0.26836581709145424	1298.168498168498	99.62737648694512	28.621855510171734	
1.7713405951766057E12	6.065217391304348	-5.445652173913043	2.4456521739130435	4.193895870736086	-8.763614602034709	0.13405146618791142	3929.6703296703295	1917.216117216117	1.0	8.620183533075519	116.00681077879774	-0.5343511450381679	-5.6183206106870225	-3.709923664122137	-0.7991004497751124	0.13793103448275862	-0.2608695652173913	1284.2490842490843	99.61602442848495	28.621855510171734	
1.7713405951962358E12	6.043478260869565	-5.413043478260869	2.4347826086956523	4.213046080191502	-8.720526630760023	0.14602034709754638	3906.227106227106	1884.9816849816848	1.0	8.61507830148945	116.07555555555555	-0.0916030534351145	-6.183206106870228	-3.7404580152671754	-0.808095952023988	0.12593703148425786	-0.2638680659670165	1277.6556776556777	99.62737648694512	28.621855510171734	
1.771340595215866E12	6.054347826086956	-5.413043478260869	2.467391304347826	4.193895870736086	-8.6918013165769	0.13405146618791142	3903.296703296703	1869.5970695970695	1.0	8.61507830148945	116.07555555555555	0.2595419847328244	-6.3969465648854955	-4.076335877862595	-0.800599700149925	0.13343328335832083	-0.2623688155922039	1279.8534798534797	99.62737648694512	28.621855510171734	
1.771340595235496E12	6.054347826086956	-5.423913043478261	2.4891304347826084	4.2034709754637944	-8.687013764213045	0.15320167564332735	3929.6703296703295	1903.296703296703	1.0	8.61507830148945	116.07555555555555	0.42748091603053434	-6.900763358778626	-4.152671755725191	-0.8020989505247376	0.1409295352323838	-0.2638680659670165	1297.4358974358975	99.63589055991866	28.621855510171734	
1.7713405952551262E12	6.076086956521739	-5.4021739130434785	2.4565217391304346	4.208258527827648	-8.68461998803112	0.15559545182525433	3928.205128205128	1912.087912087912	1.0	8.61507830148945	116.07555555555555	0.7022900763358778	-7.572519083969465	-3.9236641221374042	-0.8050974512743628	0.13793103448275862	-0.2608695652173913	1326.7399267399267	99.62737648694512	28.621855510171734	
1.7713405952747563E12	6.08695652173913	-5.380434782608695	2.467391304347826	4.2513464991023335	-8.68461998803112	0.15559545182525433	3931.135531135531	1921.6117216117216	1.0	8.61507830148945	116.07555555555555	0.7175572519083969	-8.15267175572519	-4.045801526717557	-0.800599700149925	0.12893553223388304	-0.2623688155922039	1357.5091575091574	99.62170045216678	28.621855510171734	
1.7713405952943865E12	6.119565217391304	-5.391304347826087	2.467391304347826	4.2513464991023335	-8.66786355475763	0.13165769000598443	3931.135531135531	1924.5421245421244	1.0	8.61507830148945	116.07555555555555	1.3435114503816794	-8.061068702290076	-3.969465648854962	-0.8035982008995503	0.1169415292353823	-0.2608695652173913	1368.4981684981683	99.62737648694512	28.621855510171734	
1.7713405953140168E12	6.08695652173913	-5.369565217391304	2.467391304347826	4.248952722920407	-8.648713345302214	0.14841412327947337	3901.8315018315016	1885.7142857142856	1.0	8.61507830148945	116.07555555555555	1.5572519083969465	-8.396946564885496	-3.465648854961832	-0.8035982008995503	0.12593703148425786	-0.2653673163418291	1366.3003663003662	99.63021450849551	28.621855510171734	
1.771340595333647E12	6.108695652173913	-5.3478260869565215	2.467391304347826	4.241771394374626	-8.62716935966487	0.1627767803710353	3929.6703296703295	1907.6923076923076	1.0	8.61507830148945	116.07555555555555	1.3893129770992365	-9.893129770992367	-3.6488549618320607	-0.7916041979010494	0.1394302848575712	-0.27136431784107945	1369.230769230769	99.62737648694512	28.621855510171734	
1.771340595353277E12	6.163043478260869	-5.369565217391304	2.467391304347826	4.3470975463794135	-8.665469778575703	0.1699581089168163	3906.227106227106	1882.7838827838827	1.0	8.609973069903383	116.14438185591462	1.1908396946564885	-9.755725190839694	-4.1679389312977095	-0.793103448275862	0.15442278860569714	-0.27136431784107945	1380.2197802197802	99.62170045216678	28.621855510171734	
1.7713405953729072E12	6.173913043478261	-5.33695652173913	2.4239130434782608	4.344703770197486	-8.62716935966487	0.12208258527827648	3903.296703296703	1868.8644688644688	1.0	8.609973069903383	116.14438185591462	1.6030534351145038	-9.526717557251908	-4.076335877862595	-0.7991004497751124	0.12443778110944527	-0.2608695652173913	1378.7545787545787	99.62737648694512	28.621855510171734	
1.7713405953925374E12	6.195652173913043	-5.326086956521739	2.4239130434782608	4.3877917414721725	-8.608019150209456	0.10532615200478755	3929.6703296703295	1903.296703296703	1.0	8.609973069903383	116.14438185591462	1.7251908396946565	-8.320610687022901	-4.687022900763359	-0.800599700149925	0.12443778110944527	-0.25337331334332835	1368.4981684981683	99.63305253282003	28.621855510171734	
1.7713405954121675E12	6.173913043478261	-5.326086956521739	2.4456521739130435	4.29443447037702	-8.608019150209456	0.11011370436864153	3928.205128205128	1912.8205128205127	1.0	8.609973069903383	116.14438185591462	1.1755725190839694	-9.633587786259541	-3.66412213740458	-0.8065967016491754	0.13193403298350825	-0.26836581709145424	1351.6483516483515	99.62737648694512	28.621855510171734	
1.7713405954317976E12	6.228260869565217	-5.33695652173913	2.4239130434782608	4.39736684619988	-8.617594254937163	0.13405146618791142	3901.8315018315016	1882.051282051282	1.0	8.609973069903383	116.14438185591462	1.3282442748091603	-9.221374045801527	-3.66412213740458	-0.7991004497751124	0.1424287856071964	-0.280359820089955	1336.263736263736	99.62737648694512	28.621855510171734	
1.7713405954514277E12	6.195652173913043	-5.304347826086956	2.4130434782608696	4.375822860562537	-8.593656493117892	0.11011370436864153	3931.135531135531	1912.8205128205127	1.0	8.604867838317315	116.21328982497775	1.3587786259541985	-9.969465648854962	-3.2519083969465647	-0.800599700149925	0.12743628185907047	-0.2593703148425787	1328.2051282051282	99.6245384681689	28.621855510171734	
1.7713405954710579E12	6.282608695652174	-5.315217391304348	2.4130434782608696	4.416517055655296	-8.593656493117892	0.07660083782166367	3929.6703296703295	1915.7509157509155	1.0	8.609973069903383	116.14438185591462	0.9770992366412213	-9.725190839694656	-2.8702290076335877	-0.7991004497751124	0.12293853073463268	-0.2593703148425787	1320.8791208791208	99.61886243893879	28.621855510171734	
1.771340595490688E12	6.25	-5.358695652173913	2.402173913043478	4.502692998204668	-8.641532016756432	0.09096349491322561	3931.135531135531	1922.344322344322	1.0	8.609973069903383	116.14438185591462	0.5801526717557252	-9.16030534351145	-2.916030534351145	-0.8020989505247376	0.12593703148425786	-0.2563718140929535	1327.4725274725274	99.63021450849551	28.621855510171734	
1.771340595510318E12	6.304347826086956	-5.293478260869565	2.4565217391304346	4.483542788749252	-8.610412926391382	0.10771992818671454	3906.227106227106	1886.4468864468863	1.0	8.609973069903383	116.14438185591462	0.6259541984732824	-8.015267175572518	-3.2671755725190836	-0.793103448275862	0.136431784107946	-0.27136431784107945	1336.9963369963368	99.6245384681689	28.621855510171734	
1.7713405955299482E12	6.206521739130435	-5.228260869565217	2.467391304347826	4.356672651107122	-8.521843207660083	0.15080789946140036	3929.6703296703295	1908.4249084249084	1.0	8.604867838317315	116.21328982497775	0.04580152671755725	-8.687022900763358	-3.0076335877862594	-0.793103448275862	0.15142428785607195	-0.27436281859070466	1345.7875457875457	99.63021450849551	28.621855510171734	
1.7713405955495784E12	6.304347826086956	-5.228260869565217	2.4347826086956523	4.457211250748055	-8.519449431478156	0.13165769000598443	3931.135531135531	1920.8791208791208	1.0	8.604867838317315	116.21328982497775	0.13740458015267176	-8.931297709923664	-3.877862595419847	-0.7976011994002998	0.13193403298350825	-0.2593703148425787	1358.974358974359	99.62737648694512	28.621855510171734	
1.7713405955692085E12	6.260869565217391	-5.260869565217392	2.4347826086956523	4.433273488928785	-8.512268102932376	0.11490125673249552	3929.6703296703295	1917.9487179487178	1.0	8.604867838317315	116.21328982497775	0.1984732824427481	-8.51908396946565	-4.259541984732825	-0.7976011994002998	0.15742128935532235	-0.26686656671664166	1372.8937728937728	99.6245384681689	28.621855510171734	
1.7713405955888386E12	6.293478260869565	-5.271739130434782	2.4565217391304346	4.433273488928785	-8.529024536205865	0.1412327947336924	3931.135531135531	1923.0769230769229	1.0	8.604867838317315	116.21328982497775	0.32061068702290074	-9.32824427480916	-3.2671755725190836	-0.7946026986506747	0.1424287856071964	-0.2623688155922039	1376.5567765567764	99.6245384681689	28.621855510171734	
1.7713405956084688E12	6.4021739130434785	-5.293478260869565	2.4456521739130435	4.605625374027528	-8.54817474566128	0.1436265709156194	3929.6703296703295	1925.2747252747251	1.0	8.604867838317315	116.21328982497775	0.2748091603053435	-7.129770992366412	-2.8854961832061066	-0.8035982008995503	0.13043478260869565	-0.2608695652173913	1380.2197802197802	99.62737648694512	28.621855510171734	
1.771340595628099E12	6.3478260869565215	-5.293478260869565	2.4565217391304346	4.485936564931179	-8.560143626570916	0.13405146618791142	3901.8315018315016	1885.7142857142856	1.0	8.604867838317315	116.21328982497775	0.8091603053435115	-7.099236641221374	-3.0076335877862594	-0.7946026986506747	0.1409295352323838	-0.2698650674662669	1416.117216117216	99.6245384681689	28.621855510171734	
1.7713405956477292E12	6.532608695652174	-5.510869565217392	2.7717391304347827	4.718132854578097	-8.737283064033512	0.3518850987432675	3929.6703296703295	1908.4249084249084	1.0	8.604867838317315	116.21328982497775	1.0076335877862594	-8.351145038167939	-4.2748091603053435	-0.7961019490254873	0.12743628185907047	-0.2608695652173913	1494.5054945054944	99.62170045216678	28.621855510171734	
1.7713405956673594E12	6.576086956521739	-5.739130434782608	2.891304347826087	4.761220825852782	-9.058049072411729	0.6702573309395571	3904.7619047619046	1882.051282051282	1.0	8.604867838317315	116.21328982497775	3.709923664122137	-14.15267175572519	-8.442748091603054	-0.7991004497751124	0.15142428785607195	-0.2578710644677661	1602.197802197802	99.6245384681689	28.621855510171734	
1.7713405956869895E12	6.989130434782608	-6.065217391304348	3.358695652173913	5.177737881508079	-9.330939557151407	1.0867743865948534	3931.135531135531	1912.8205128205127	1.0	8.604867838317315	116.21328982497775	9.603053435114504	-22.671755725190838	-18.30534351145038	-0.7991004497751124	0.14992503748125938	-0.2623688155922039	1731.8681318681317	99.62862774108768	28.646979770832694	
1.7713405957066196E12	7.510869565217391	-6.293478260869565	3.4565217391304346	5.694793536804308	-9.711549970077797	1.3572710951526032	3929.6703296703295	1915.018315018315	1.0	8.604867838317315	116.21328982497775	19.63358778625954	-41.603053435114504	-33.43511450381679	-0.7946026986506747	0.14392803598200898	-0.26836581709145424	1854.212454212454	99.63714215308158	28.646979770832694	
1.7713405957262498E12	8.554347826086957	-6.684782608695652	3.8152173913043477	6.877318970676241	-10.032315978456014	1.622980251346499	3925.274725274725	1915.018315018315	1.0	8.604867838317315	116.21328982497775	26.519083969465647	-51.52671755725191	-53.725190839694655	-0.7901049475262368	0.1424287856071964	-0.2623688155922039	1924.5421245421244	99.62862774108768	28.646979770832694	
1.77134059574588E12	9.326086956521738	-7.391304347826087	4.554347826086956	7.765409934171155	-10.865350089766606	2.4201077199281866	3929.6703296703295	1916.4835164835163	1.0	8.604867838317315	116.21328982497775	36.82442748091603	-63.541984732824424	-81.45038167938931	-0.8050974512743628	0.13193403298350825	-0.2623688155922039	1912.8205128205127	99.63146587564464	28.646979770832694	
1.77134059576551E12	9.83695652173913	-7.695652173913043	5.195652173913043	8.473967684021543	-11.341711549970077	3.1430281268701377	3929.6703296703295	1917.216117216117	1.0	8.604867838317315	116.21328982497775	49.20610687022901	-70.87022900763358	-111.43511450381679	-0.8095952023988006	0.12443778110944527	-0.25487256371814093	1801.4652014652013	99.62862774108768	28.646979770832694	
1.7713405957851401E12	9.641304347826086	-7.543478260869565	5.5	8.071813285457809	-11.202872531418311	3.559545182525434	3901.8315018315016	1882.7838827838827	1.0	8.604867838317315	116.21328982497775	63.099236641221374	-83.7557251908397	-138.1679389312977	-0.8125937031484257	0.13793103448275862	-0.2563718140929535	1626.3736263736262	99.63430401297593	28.646979770832694	
1.7713405958047703E12	10.576086956521738	-7.434782608695652	5.282608695652174	9.292639138240574	-11.095152603231597	3.317773788150808	3929.6703296703295	1906.227106227106	1.0	8.604867838317315	116.21328982497775	75.34351145038168	-92.45801526717557	-158.0916030534351	-0.8110944527736131	0.13043478260869565	-0.2593703148425787	1418.3150183150183	99.63146587564464	28.646979770832694	
1.7713405958244004E12	11.771739130434783	-7.119565217391304	5.760869565217392	10.666666666666666	-10.68821065230401	3.8491921005385996	3906.227106227106	1882.051282051282	1.0	8.604867838317315	116.21328982497775	81.06870229007633	-87.55725190839695	-168.18320610687022	-0.8290854572713643	0.11394302848575712	-0.25337331334332835	1224.1758241758241	99.63714215308158	28.646979770832694	
1.7713405958440305E12	13.065217391304348	-6.815217391304348	6.293478260869565	11.310592459605026	-10.503889886295632	4.050269299820466	3931.135531135531	1912.8205128205127	1.0	8.604867838317315	116.21328982497775	107.38931297709924	-70.44274809160305	-196.0916030534351	-0.833583208395802	0.12293853073463268	-0.25487256371814093	1131.135531135531	99.62578960930509	28.646979770832694	
1.7713405958636606E12	14.315217391304348	-6.554347826086956	5.728260869565217	12.586475164572112	-10.235786953919808	3.964093357271095	3929.6703296703295	1915.7509157509155	1.0	8.599762606731247	116.28227960819234	111.66412213740458	-51.6793893129771	-209.93893129770993	-0.8455772113943029	0.0914542728635682	-0.25337331334332835	1232.2344322344322	99.62578960930509	28.646979770832694	
1.7713405958832908E12	14.608695652173912	-6.065217391304348	5.6521739130434785	13.690005984440454	-9.91741472172352	3.712746858168761	3926.7399267399264	1909.8901098901097	1.0	8.604867838317315	116.21328982497775	120.76335877862594	-16.12213740458015	-232.06106870229007	-0.8680659670164917	0.07946026986506746	-0.24887556221889054	1608.058608058608	99.62578960930509	28.646979770832694	
1.771340595902921E12	13.576086956521738	-5.0978260869565215	5.717391304347826	13.081986834231	-9.16816277678037	3.6600837821663674	3901.8315018315016	1881.3186813186812	1.0	8.604867838317315	116.21328982497775	129.14503816793894	15.358778625954198	-241.83206106870227	-0.8725637181409295	0.06746626686656672	-0.2563718140929535	2062.271062271062	99.62578960930509	28.646979770832694	
1.771340595922551E12	13.554347826086957	-3.9239130434782608	5.673913043478261	12.29443447037702	-7.72950329144225	3.688809096349491	3929.6703296703295	1906.9597069597069	1.0	8.599762606731247	116.28227960819234	134.15267175572518	42.854961832061065	-244.8091603053435	-0.881559220389805	0.05997001499250375	-0.27586206896551724	2360.4395604395604	99.62578960930509	28.646979770832694	
1.7713405959421814E12	14.608695652173912	-3.5869565217391304	5.326086956521739	13.060442848593656	-6.929982046678635	3.499700777977259	3929.6703296703295	1913.5531135531135	1.0	8.599762606731247	116.28227960819234	134.27480916030535	47.9236641221374	-255.00763358778624	-0.8935532233883058	0.022488755622188904	-0.27586206896551724	2437.362637362637	99.62862774108768	28.646979770832694	
1.7713405959618115E12	15.380434782608695	-3.619565217391304	5.032608695652174	14.43207660083782	-7.001795332136445	3.080789946140036	3929.6703296703295	1915.7509157509155	1.0	8.59465737514518	116.35135135135134	140.50381679389312	61.87786259541984	-267.64885496183206	-0.9115442278860569	-0.0029985007496251873	-0.29685157421289354	2294.5054945054944	99.62011335406294	28.646979770832694	
1.7713405959814417E12	15.26086956521739	-3.1739130434782608	4.782608695652174	14.183123877917414	-6.681029323758229	2.783961699581089	3907.6923076923076	1890.8424908424906	1.0	8.59465737514518	116.35135135135134	148.5648854961832	85.93893129770991	-277.7251908396946	-0.9175412293853074	-0.025487256371814093	-0.2833583208395802	2032.9670329670328	99.62011335406294	28.646979770832694	
1.7713405960010718E12	15.652173913043478	-2.4239130434782608	4.815217391304348	14.762417713943746	-6.020347097546379	2.4153201675643325	3904.7619047619046	1876.1904761904761	1.0	8.59465737514518	116.35135135135134	152.83969465648855	91.16030534351145	-287.00763358778624	-0.9265367316341829	-0.047976011994003	-0.29235382308845576	1778.021978021978	99.62578960930509	28.646979770832694	
