"sep=	"
Shimmer_A679_TimestampSync_Unix_CAL	Shimmer_A679_Accel_LN_X_CAL	Shimmer_A679_Accel_LN_Y_CAL	Shimmer_A679_Accel_LN_Z_CAL	Shimmer_A679_Accel_WR_X_CAL	Shimmer_A679_Accel_WR_Y_CAL	Shimmer_A679_Accel_WR_Z_CAL	Shimmer_A679_Battery_CAL	Shimmer_A679_Ext_Exp_A15_CAL	Shimmer_A679_GSR_Range_CAL	Shimmer_A679_GSR_Skin_Conductance_CAL	Shimmer_A679_GSR_Skin_Resistance_CAL	Shimmer_A679_Gyro_X_CAL	Shimmer_A679_Gyro_Y_CAL	Shimmer_A679_Gyro_Z_CAL	Shimmer_A679_Mag_X_CAL	Shimmer_A679_Mag_Y_CAL	Shimmer_A679_Mag_Z_CAL	Shimmer_A679_PPG_A13_CAL	Shimmer_A679_Pressure_BMP280_CAL	Shimmer_A679_Temperature_BMP280_CAL	
ms	m/(s^2)	m/(s^2)	m/(s^2)	m/(s^2)	m/(s^2)	m/(s^2)	mV	mV	no_units	uS	kOhms	deg/s	deg/s	deg/s	local_flux	local_flux	local_flux	mV	kPa	Degrees Celsius	
1.7713404742509946E12	3.1956521739130435	9.58695652173913	-3.010869565217391	1.2112507480550567	7.882704967085577	-5.747456612806703	3929.6703296703295	1905.4945054945053	1.0	6.97629896236168	143.3424807903403	-4.198473282442748	0.6717557251908397	-2.259541984732824	-0.5982008995502248	-0.2773613193403298	-0.050974512743628186	1340.6593406593406	99.6279715622499	29.079118193034084	
1.7713404742705293E12	3.1956521739130435	9.597826086956522	-3.0217391304347827	1.2112507480550567	7.90424895272292	-5.785757031717535	3929.6703296703295	1913.5531135531135	1.0	6.97629896236168	143.3424807903403	-4.244274809160305	0.732824427480916	-1.3435114503816794	-0.5982008995502248	-0.280359820089955	-0.046476761619190406	1325.2747252747251	99.62229145711905	29.079118193034084	
1.771340474290064E12	3.184782608695652	9.576086956521738	-3.010869565217391	1.2040694195092758	7.88031119090365	-5.740275284260921	3929.6703296703295	1915.7509157509155	1.0	6.97629896236168	143.3424807903403	-3.9847328244274807	0.7022900763358778	-1.7709923664122136	-0.5997001499250375	-0.2638680659670165	-0.04947526236881559	1309.1575091575091	99.6279715622499	29.079118193034084	
1.7713404743095986E12	3.1956521739130435	9.58695652173913	-3.032608695652174	1.2040694195092758	7.8444045481747455	-5.785757031717535	3907.6923076923076	1890.8424908424906	1.0	6.981404193947748	143.23765996343693	-3.8931297709923665	0.04580152671755725	-1.4351145038167938	-0.5952023988005997	-0.2833583208395802	-0.04047976011994003	1311.3553113553112	99.6279715622499	29.079118193034084	
1.7713404743291333E12	3.2065217391304346	9.608695652173912	-3.0217391304347827	1.2471573907839617	7.8922800718132855	-5.7929383602633155	3903.296703296703	1871.0622710622708	1.0	6.981404193947748	143.23765996343693	-3.9847328244274807	0.2595419847328244	-1.4961832061068703	-0.6026986506746627	-0.280359820089955	-0.041979010494752625	1319.4139194139193	99.63081161898249	29.079118193034084	
1.7713404743486682E12	3.1956521739130435	9.58695652173913	-3.043478260869565	1.2280071813285458	7.897067624177139	-5.809694793536804	3929.6703296703295	1904.0293040293038	1.0	6.981404193947748	143.23765996343693	-3.9389312977099236	0.10687022900763359	-1.7709923664122136	-0.6026986506746627	-0.2653673163418291	-0.047976011994003	1333.3333333333333	99.62513150829542	29.079118193034084	
1.771340474368203E12	3.2391304347826084	9.619565217391305	-3.032608695652174	1.2639138240574506	7.894673847995212	-5.785757031717535	3926.7399267399264	1906.227106227106	1.0	6.986509425533815	143.13299232736574	-4.351145038167939	-0.04580152671755725	-1.4961832061068703	-0.6011994002998501	-0.2863568215892054	-0.050974512743628186	1341.3919413919414	99.6279715622499	29.079118193034084	
1.7713404743877375E12	3.293478260869565	9.630434782608695	-3.010869565217391	1.2926391382405744	7.906642728904847	-5.802513464991023	3931.135531135531	1920.14652014652	1.0	6.986509425533815	143.13299232736574	-4.427480916030534	-0.07633587786259542	-1.6335877862595418	-0.6041979010494752	-0.29235382308845576	-0.041979010494752625	1339.9267399267399	99.63365167849321	29.079118193034084	
1.7713404744072722E12	3.3043478260869565	9.630434782608695	-3.0	1.3117893476959903	7.906642728904847	-5.764213046080191	3931.135531135531	1923.8095238095236	1.0	6.991614657119883	143.02847754654985	-4.442748091603053	0.4427480916030534	-1.9083969465648853	-0.6011994002998501	-0.2833583208395802	-0.037481259370314844	1343.5897435897434	99.6279715622499	29.079118193034084	
1.771340474426807E12	3.3043478260869565	9.597826086956522	-2.9782608695652173	1.3405146618791142	7.8922800718132855	-5.75703171753441	3931.135531135531	1925.2747252747251	1.0	6.991614657119883	143.02847754654985	-4.595419847328244	0.6870229007633587	-2.1374045801526718	-0.5967016491754122	-0.2833583208395802	-0.035982008995502246	1350.18315018315	99.6279715622499	29.079118193034084	
1.7713404744463416E12	3.282608695652174	9.597826086956522	-2.9565217391304346	1.3285457809694794	7.875523638539796	-5.716337522441652	3929.6703296703295	1919.4139194139193	1.0	6.996719888705951	142.92411528639184	-4.183206106870228	0.48854961832061067	-2.33587786259542	-0.608695652173913	-0.2818590704647676	-0.050974512743628186	1360.4395604395604	99.6279715622499	29.079118193034084	
1.7713404744658762E12	3.260869565217391	9.608695652173912	-2.9782608695652173	1.2782764811490126	7.887492519449431	-5.747456612806703	3906.227106227106	1885.7142857142856	1.0	6.996719888705951	142.92411528639184	-4.549618320610687	0.3969465648854962	-2.1068702290076335	-0.5982008995502248	-0.29235382308845576	-0.035982008995502246	1364.8351648351647	99.63081161898249	29.079118193034084	
1.771340474485411E12	3.2282608695652173	9.630434782608695	-2.9565217391304346	1.2399760622381808	7.918611609814482	-5.749850388988629	3931.135531135531	1914.2857142857142	1.0	6.996719888705951	142.92411528639184	-3.9083969465648853	0.7175572519083969	-2.6564885496183206	-0.5952023988005997	-0.2638680659670165	-0.04047976011994003	1367.032967032967	99.61661136310065	29.079118193034084	
1.7713404745049456E12	3.2391304347826084	9.619565217391305	-2.9782608695652173	1.2375822860562538	7.901855176540993	-5.737881508078995	3931.135531135531	1922.344322344322	1.0	7.001825120292019	142.81990521327015	-4.183206106870228	0.2595419847328244	-2.5343511450381677	-0.6101949025487257	-0.27436281859070466	-0.04047976011994003	1371.4285714285713	99.6279715622499	29.079118193034084	
1.7713404745244802E12	3.1630434782608696	9.652173913043478	-2.9782608695652173	1.187312986235787	7.921005385996409	-5.723518850987433	3926.7399267399264	1911.3553113553112	1.0	7.001825120292019	142.81990521327015	-3.5114503816793894	0.32061068702290074	-2.748091603053435	-0.6011994002998501	-0.2788605697151424	-0.043478260869565216	1377.2893772893772	99.6279715622499	29.079118193034084	
1.771340474544015E12	3.184782608695652	9.641304347826086	-2.9456521739130435	1.180131657690006	7.925792938360263	-5.745062836624776	3931.135531135531	1920.8791208791208	1.0	7.001825120292019	142.81990521327015	-3.5572519083969465	-0.2595419847328244	-2.4122137404580153	-0.6071964017991004	-0.2788605697151424	-0.043478260869565216	1373.6263736263736	99.6279715622499	29.079118193034084	
1.7713404745635496E12	3.141304347826087	9.619565217391305	-2.9565217391304346	1.165769000598444	7.925792938360263	-5.737881508078995	3929.6703296703295	1917.9487179487178	1.0	7.006930351878087	142.71584699453553	-3.465648854961832	0.22900763358778625	-2.396946564885496	-0.5997001499250375	-0.2623688155922039	-0.046476761619190406	1356.7765567765566	99.63081161898249	29.079118193034084	
1.7713404745830842E12	3.1304347826086953	9.619565217391305	-3.010869565217391	1.170556552962298	7.92818671454219	-5.769000598444046	3929.6703296703295	1917.216117216117	1.0	7.006930351878087	142.71584699453553	-3.465648854961832	-0.030534351145038167	-2.229007633587786	-0.5967016491754122	-0.27436281859070466	-0.046476761619190406	1334.065934065934	99.6279715622499	29.079118193034084	
1.771340474602619E12	3.152173913043478	9.619565217391305	-3.043478260869565	1.1921005385996408	7.930580490724117	-5.7761819269898265	3928.205128205128	1915.7509157509155	1.0	7.012035583464154	142.61194029850748	-3.465648854961832	-0.0916030534351145	-1.7099236641221374	-0.6011994002998501	-0.27136431784107945	-0.05547226386806597	1324.5421245421244	99.6279715622499	29.079118193034084	
1.7713404746221538E12	3.2282608695652173	9.576086956521738	-3.032608695652174	1.2399760622381808	7.877917414721724	-5.797725912627169	3906.227106227106	1885.7142857142856	1.0	7.012035583464154	142.61194029850748	-3.6488549618320607	-0.366412213740458	-1.6335877862595418	-0.6071964017991004	-0.2863568215892054	-0.04047976011994003	1326.7399267399267	99.63081161898249	29.079118193034084	
1.7713404746416885E12	3.3260869565217392	9.597826086956522	-2.9891304347826084	1.3500897666068223	7.8683423099940155	-5.78096947935368	3903.296703296703	1869.5970695970695	1.0	7.012035583464154	142.61194029850748	-3.1755725190839694	-0.5343511450381679	-1.6030534351145038	-0.608695652173913	-0.280359820089955	-0.041979010494752625	1329.6703296703297	99.63081161898249	29.079118193034084	
1.7713404746612231E12	3.3478260869565215	9.597826086956522	-2.9782608695652173	1.3548773189706762	7.897067624177139	-5.778575703171754	3929.6703296703295	1903.296703296703	1.0	7.012035583464154	142.61194029850748	-3.2671755725190836	-0.6259541984732824	-1.7557251908396947	-0.5982008995502248	-0.28785607196401797	-0.047976011994003	1335.5311355311355	99.6279715622499	29.079118193034084	
1.7713404746807578E12	3.358695652173913	9.619565217391305	-2.9891304347826084	1.3883901855176541	7.889886295631358	-5.730700179533214	3923.8095238095234	1904.7619047619046	1.0	7.017140815050223	142.5081847944707	-3.282442748091603	-0.916030534351145	-2.0610687022900764	-0.5952023988005997	-0.29235382308845576	-0.043478260869565216	1345.7875457875457	99.62715404903544	29.07409331529052	
1.7713404747002925E12	3.3260869565217392	9.597826086956522	-2.9782608695652173	1.3764213046080191	7.90424895272292	-5.709156193895871	3929.6703296703295	1913.5531135531135	1.0	7.0222460466362895	142.40458015267177	-2.946564885496183	-0.732824427480916	-2.8854961832061066	-0.5982008995502248	-0.2788605697151424	-0.038980509745127435	1358.974358974359	99.62715404903544	29.07409331529052	
1.7713404747198271E12	3.282608695652174	9.58695652173913	-2.9456521739130435	1.3405146618791142	7.887492519449431	-5.711549970077797	3929.6703296703295	1915.7509157509155	1.0	7.0222460466362895	142.40458015267177	-2.854961832061069	-0.6412213740458015	-3.5725190839694654	-0.5982008995502248	-0.27136431784107945	-0.035982008995502246	1368.4981684981683	99.62999408260848	29.07409331529052	
1.7713404747393618E12	3.184782608695652	9.630434782608695	-2.9891304347826084	1.2639138240574506	7.894673847995212	-5.735487731897067	3909.1575091575087	1886.4468864468863	1.0	7.0222460466362895	142.40458015267177	-2.4122137404580153	-0.564885496183206	-3.9847328244274807	-0.5997001499250375	-0.27586206896551724	-0.05247376311844078	1363.3699633699632	99.62999408260848	29.07409331529052	
1.7713404747588965E12	3.0652173913043477	9.641304347826086	-3.0543478260869565	1.1226810293237581	7.935368043087971	-5.785757031717535	3929.6703296703295	1908.4249084249084	1.0	7.0222460466362895	142.40458015267177	-2.7022900763358777	-0.42748091603053434	-3.9541984732824424	-0.5967016491754122	-0.2788605697151424	-0.034482758620689655	1369.9633699633698	99.62715404903544	29.07409331529052	
1.7713404747784312E12	2.934782608695652	9.630434782608695	-3.141304347826087	0.9838420107719928	7.935368043087971	-5.87672052663076	3904.7619047619046	1888.6446886446886	1.0	7.0273512782223575	142.3011260443153	-2.8854961832061066	-0.4427480916030534	-3.8625954198473282	-0.5997001499250375	-0.280359820089955	-0.04047976011994003	1378.7545787545787	99.62431401824044	29.07409331529052	
1.7713404747979658E12	2.9130434782608696	9.630434782608695	-3.184782608695652	0.9024536205864752	7.918611609814482	-5.941352483542788	3901.8315018315016	1874.7252747252746	1.0	7.0273512782223575	142.3011260443153	-3.465648854961832	-0.8244274809160305	-2.778625954198473	-0.5982008995502248	-0.2908545727136432	-0.043478260869565216	1326.007326007326	99.62715404903544	29.07409331529052	
1.7713404748175005E12	2.9456521739130435	9.597826086956522	-3.1630434782608696	0.9287851585876721	7.923399162178336	-5.953321364452424	3928.205128205128	1904.0293040293038	1.0	7.0273512782223575	142.3011260443153	-4.3206106870229	-1.9236641221374045	-1.1450381679389312	-0.5937031484257871	-0.272863568215892	-0.046476761619190406	1143.5897435897434	99.62999408260848	29.07409331529052	
1.7713404748370352E12	3.043478260869565	9.543478260869565	-3.108695652173913	1.0149611011370436	7.8683423099940155	-5.922202274087373	3922.344322344322	1904.0293040293038	1.0	7.0324565098084255	142.1978221415608	-4.67175572519084	-2.595419847328244	-0.6106870229007634	-0.6011994002998501	-0.27586206896551724	-0.037481259370314844	993.4065934065933	99.62715404903544	29.07409331529052	
1.7713404748565698E12	3.1304347826086953	9.554347826086957	-3.0652173913043477	1.132256134051466	7.842010771992818	-5.824057450628366	3929.6703296703295	1913.5531135531135	1.0	7.0324565098084255	142.1978221415608	-4.534351145038168	-2.213740458015267	-0.7633587786259541	-0.5982008995502248	-0.28785607196401797	-0.047976011994003	1044.6886446886447	99.62715404903544	29.07409331529052	
1.7713404748761045E12	3.2282608695652173	9.543478260869565	-3.043478260869565	1.2280071813285458	7.8204667863554755	-5.8001196888090965	3929.6703296703295	1916.4835164835163	1.0	7.0324565098084255	142.1978221415608	-4.687022900763359	-1.984732824427481	-0.6412213740458015	-0.6026986506746627	-0.2893553223388306	-0.037481259370314844	1274.7252747252746	99.62999408260848	29.07409331529052	
1.7713404748956392E12	3.2282608695652173	9.543478260869565	-3.032608695652174	1.2543387193297426	7.825254338719329	-5.8001196888090965	3929.6703296703295	1917.216117216117	1.0	7.0324565098084255	142.1978221415608	-4.534351145038168	-1.5419847328244274	-0.8091603053435115	-0.608695652173913	-0.27586206896551724	-0.038980509745127435	1561.1721611721612	99.62999408260848	29.07409331529052	
1.771340474915174E12	3.2065217391304346	9.597826086956522	-3.0652173913043477	1.2399760622381808	7.8683423099940155	-5.790544584081388	3929.6703296703295	1917.216117216117	1.0	7.0324565098084255	142.1978221415608	-3.83206106870229	-1.2061068702290076	-1.1603053435114503	-0.6056971514242878	-0.2638680659670165	-0.04047976011994003	1762.6373626373625	99.62715404903544	29.07409331529052	
1.7713404749347087E12	3.1956521739130435	9.630434782608695	-3.0869565217391304	1.2112507480550567	7.913824057450628	-5.826451226810293	3906.227106227106	1884.9816849816848	1.0	7.037561741394494	142.09466811751903	-4.061068702290076	-0.5343511450381679	-2.0763358778625953	-0.5967016491754122	-0.27436281859070466	-0.04047976011994003	1824.9084249084249	99.62999408260848	29.07409331529052	
1.7713404749542434E12	3.184782608695652	9.641304347826086	-3.0978260869565215	1.180131657690006	7.937761819269898	-5.879114302812686	3931.135531135531	1914.2857142857142	1.0	7.037561741394494	142.09466811751903	-4.458015267175572	0.183206106870229	-1.8015267175572518	-0.6071964017991004	-0.2908545727136432	-0.047976011994003	1799.2673992673992	99.6328341189596	29.07409331529052	
1.771340474973778E12	3.119565217391304	9.597826086956522	-3.1304347826086953	1.153800119688809	7.9162178336325555	-5.888689407540395	3929.6703296703295	1915.7509157509155	1.0	7.037561741394494	142.09466811751903	-5.206106870229007	0.732824427480916	-1.0534351145038168	-0.6011994002998501	-0.2893553223388306	-0.038980509745127435	1727.4725274725274	99.62715404903544	29.07409331529052	
1.7713404749933127E12	3.0869565217391304	9.608695652173912	-3.0978260869565215	1.1107121484141234	7.899461400359066	-5.867145421903052	3922.344322344322	1907.6923076923076	1.0	7.037561741394494	142.09466811751903	-5.0534351145038165	0.8244274809160305	-0.6870229007633587	-0.6026986506746627	-0.2788605697151424	-0.046476761619190406	1627.106227106227	99.63567415808878	29.07409331529052	
1.7713404750128474E12	3.119565217391304	9.630434782608695	-3.043478260869565	1.1370436864153202	7.921005385996409	-5.824057450628366	3901.8315018315016	1880.5860805860805	1.0	7.0426669729805615	141.99166364624864	-5.526717557251908	1.083969465648855	-0.1984732824427481	-0.6041979010494752	-0.27586206896551724	-0.047976011994003	1522.3443223443223	99.6328341189596	29.07409331529052	
1.771340475032382E12	3.1739130434782608	9.630434782608695	-3.0217391304347827	1.187312986235787	7.925792938360263	-5.78096947935368	3931.135531135531	1912.087912087912	1.0	7.0426669729805615	141.99166364624864	-6.015267175572519	1.4351145038167938	0.0916030534351145	-0.6026986506746627	-0.2848575712143928	-0.047976011994003	1450.5494505494505	99.63567415808878	29.07409331529052	
1.7713404750519167E12	3.25	9.608695652173912	-3.0217391304347827	1.2734889287851585	7.8922800718132855	-5.740275284260921	3929.6703296703295	1915.7509157509155	1.0	7.04777220456663	141.88880840275263	-6.229007633587786	2.351145038167939	0.33587786259541985	-0.5997001499250375	-0.2833583208395802	-0.041979010494752625	1402.9304029304028	99.62999408260848	29.07409331529052	
1.7713404750714514E12	3.260869565217391	9.597826086956522	-2.9891304347826084	1.2974266906044285	7.870736086175943	-5.759425493716337	3931.135531135531	1921.6117216117216	1.0	7.0426669729805615	141.99166364624864	-6.137404580152672	3.4198473282442747	0.04580152671755725	-0.5952023988005997	-0.2833583208395802	-0.029985007496251874	1376.5567765567764	99.62715404903544	29.07409331529052	
1.771340475090986E12	3.184782608695652	9.641304347826086	-2.9456521739130435	1.2375822860562538	7.909036505086775	-5.701974865350089	3909.1575091575087	1887.9120879120878	1.0	7.04777220456663	141.88880840275263	-5.603053435114504	3.6946564885496183	-0.3511450381679389	-0.5997001499250375	-0.280359820089955	-0.04497751124437781	1368.4981684981683	99.62999408260848	29.07409331529052	
1.7713404751105208E12	3.2282608695652173	9.67391304347826	-2.967391304347826	1.2184320766008379	7.956912028725314	-5.711549970077797	3903.296703296703	1870.3296703296703	1.0	7.04777220456663	141.88880840275263	-5.603053435114504	3.5114503816793894	-0.061068702290076333	-0.5997001499250375	-0.2773613193403298	-0.041979010494752625	1353.113553113553	99.62715404903544	29.07409331529052	
1.7713404751300554E12	3.152173913043478	9.66304347826087	-2.967391304347826	1.20885697187313	7.961699581089168	-5.718731298623578	3929.6703296703295	1903.296703296703	1.0	7.04777220456663	141.88880840275263	-5.893129770992366	3.129770992366412	0.12213740458015267	-0.5997001499250375	-0.2563718140929535	-0.05397301349325337	1341.3919413919414	99.62715404903544	29.07409331529052	
1.77134047514959E12	3.1304347826086953	9.66304347826087	-2.9782608695652173	1.1154997007779772	7.954518252543387	-5.7283064033512865	3923.8095238095234	1905.4945054945053	1.0	7.04777220456663	141.88880840275263	-5.9541984732824424	3.3740458015267176	0.24427480916030533	-0.6011994002998501	-0.2593703148425787	-0.050974512743628186	1347.2527472527472	99.62715404903544	29.07409331529052	
1.7713404751691248E12	3.1739130434782608	9.630434782608695	-2.967391304347826	1.151406343506882	7.92818671454219	-5.75703171753441	3931.135531135531	1920.14652014652	1.0	7.052877436152698	141.78610206297503	-5.557251908396946	3.2213740458015265	0.6717557251908397	-0.6056971514242878	-0.272863568215892	-0.041979010494752625	1368.4981684981683	99.63567415808878	29.07409331529052	
1.7713404751886597E12	3.2282608695652173	9.576086956521738	-2.9456521739130435	1.2184320766008379	7.913824057450628	-5.742669060442848	3931.135531135531	1923.8095238095236	1.0	7.052877436152698	141.78610206297503	-5.908396946564885	3.0381679389312977	1.282442748091603	-0.5997001499250375	-0.280359820089955	-0.047976011994003	1379.4871794871794	99.62715404903544	29.07409331529052	
1.7713404752081943E12	3.3369565217391304	9.619565217391305	-2.934782608695652	1.3453022142429683	7.911430281268701	-5.697187312986236	3917.948717948718	1903.296703296703	1.0	7.052877436152698	141.78610206297503	-5.801526717557252	2.6259541984732824	1.099236641221374	-0.6026986506746627	-0.27436281859070466	-0.038980509745127435	1380.952380952381	99.62715404903544	29.07409331529052	
1.771340475227729E12	3.369565217391304	9.619565217391305	-2.880434782608696	1.3764213046080191	7.911430281268701	-5.634949132256134	3926.7399267399264	1906.227106227106	1.0	7.052877436152698	141.78610206297503	-5.404580152671755	2.198473282442748	0.8396946564885496	-0.6056971514242878	-0.25487256371814093	-0.04947526236881559	1384.6153846153845	99.62715404903544	29.07409331529052	
1.7713404752472637E12	3.4456521739130435	9.597826086956522	-2.8369565217391304	1.4506283662477557	7.894673847995212	-5.589467384799521	3907.6923076923076	1888.6446886446886	1.0	7.057982667738766	141.68354430379748	-5.083969465648854	1.129770992366412	0.6106870229007634	-0.5997001499250375	-0.2908545727136432	-0.037481259370314844	1396.3369963369962	99.62715404903544	29.07409331529052	
1.7713404752667983E12	3.358695652173913	9.58695652173913	-2.8043478260869565	1.4458408138839018	7.873129862357869	-5.563135846798324	3931.135531135531	1915.7509157509155	1.0	7.052877436152698	141.78610206297503	-4.183206106870228	0.8244274809160305	-0.7633587786259541	-0.6041979010494752	-0.29385307346326833	-0.043478260869565216	1406.5934065934066	99.62715404903544	29.07409331529052	
1.771340475286333E12	3.3369565217391304	9.619565217391305	-2.8260869565217392	1.3692399760622382	7.88031119090365	-5.565529622980251	3931.135531135531	1922.344322344322	1.0	7.057982667738766	141.68354430379748	-3.282442748091603	0.38167938931297707	-1.8015267175572518	-0.6071964017991004	-0.2833583208395802	-0.043478260869565216	1402.197802197802	99.62999408260848	29.07409331529052	
1.7713404753058677E12	3.3369565217391304	9.630434782608695	-2.902173913043478	1.3453022142429683	7.913824057450628	-5.65409934171155	3922.344322344322	1909.8901098901097	1.0	7.052877436152698	141.78610206297503	-2.748091603053435	0.33587786259541985	-2.4885496183206106	-0.6131934032983508	-0.27436281859070466	-0.04497751124437781	1385.3479853479853	99.62715404903544	29.07409331529052	
1.7713404753254023E12	3.2391304347826084	9.597826086956522	-2.9782608695652173	1.3046080191502094	7.901855176540993	-5.706762417713944	3931.135531135531	1920.8791208791208	1.0	7.057982667738766	141.68354430379748	-2.33587786259542	-0.21374045801526717	-2.687022900763359	-0.5907046476761619	-0.29385307346326833	-0.043478260869565216	1367.7655677655678	99.62147399022354	29.07409331529052	
1.771340475344937E12	3.119565217391304	9.608695652173912	-2.934782608695652	1.153800119688809	7.882704967085577	-5.701974865350089	3931.135531135531	1923.8095238095236	1.0	7.057982667738766	141.68354430379748	-2.427480916030534	-1.618320610687023	-2.610687022900763	-0.6011994002998501	-0.2653673163418291	-0.05397301349325337	1361.904761904762	99.62999408260848	29.07409331529052	
1.7713404753644717E12	3.119565217391304	9.630434782608695	-3.010869565217391	1.0963494913225613	7.923399162178336	-5.737881508078995	3929.6703296703295	1919.4139194139193	1.0	7.063087899324834	141.58113480303578	-2.015267175572519	-2.3664122137404577	-2.8091603053435112	-0.5967016491754122	-0.2833583208395802	-0.038980509745127435	1351.6483516483515	99.6328341189596	29.07409331529052	
1.7713404753840063E12	3.1739130434782608	9.66304347826087	-3.1304347826086953	1.156193895870736	7.968880909634949	-5.857570317175344	3929.6703296703295	1917.9487179487178	1.0	7.063087899324834	141.58113480303578	-2.259541984732824	-2.030534351145038	-2.045801526717557	-0.5952023988005997	-0.2818590704647676	-0.037481259370314844	1305.4945054945053	99.62431401824044	29.07409331529052	
1.771340475403541E12	3.2065217391304346	9.619565217391305	-3.1739130434782608	1.2160383004189108	7.913824057450628	-5.972471573907839	3906.227106227106	1885.7142857142856	1.0	7.063087899324834	141.58113480303578	-2.778625954198473	-1.6335877862595418	-1.4198473282442747	-0.5967016491754122	-0.2788605697151424	-0.043478260869565216	1267.3992673992673	99.62431401824044	29.07409331529052	
1.7713404754230757E12	3.25	9.565217391304348	-3.0652173913043477	1.2687013764213046	7.8444045481747455	-5.879114302812686	3931.135531135531	1914.2857142857142	1.0	7.063087899324834	141.58113480303578	-4.091603053435114	-3.099236641221374	-0.12213740458015267	-0.5997001499250375	-0.2848575712143928	-0.041979010494752625	1273.9926739926739	99.62147399022354	29.07409331529052	
1.7713404754426104E12	3.4130434782608696	9.543478260869565	-2.9782608695652173	1.438659485338121	7.834829443447037	-5.725912627169359	3929.6703296703295	1915.7509157509155	1.0	7.0681931309109	141.47887323943664	-4.473282442748092	-4.778625954198473	0.0916030534351145	-0.5997001499250375	-0.28785607196401797	-0.047976011994003	1296.7032967032967	99.6328341189596	29.07409331529052	
1.7713404754621453E12	3.5	9.684782608695652	-2.9239130434782608	1.5248354278874925	7.97606223818073	-5.690005984440455	3922.344322344322	1907.6923076923076	1.0	7.0681931309109	141.47887323943664	-3.49618320610687	-4.0	-1.5725190839694656	-0.5922038980509745	-0.26836581709145424	-0.05397301349325337	1297.4358974358975	99.62999408260848	29.07409331529052	
1.77134047548168E12	3.4130434782608696	9.728260869565217	-3.010869565217391	1.5032914422501495	7.997606223818073	-5.718731298623578	3931.135531135531	1920.8791208791208	1.0	7.0681931309109	141.47887323943664	-3.2213740458015265	-1.4961832061068703	-2.6717557251908395	-0.6011994002998501	-0.2773613193403298	-0.038980509745127435	1280.5860805860805	99.62147399022354	29.07409331529052	
1.7713404755012146E12	3.260869565217391	9.641304347826086	-3.0543478260869565	1.3405146618791142	8.00718132854578	-5.812088569718731	3931.135531135531	1924.5421245421244	1.0	7.0681931309109	141.47887323943664	-4.091603053435114	0.15267175572519084	-2.549618320610687	-0.5982008995502248	-0.2608695652173913	-0.03298350824587706	1266.6666666666665	99.62999408260848	29.07409331529052	
1.7713404755207493E12	3.217391304347826	9.576086956521738	-3.0543478260869565	1.2136445242369838	7.875523638539796	-5.82884500299222	3929.6703296703295	1919.4139194139193	1.0	7.0681931309109	141.47887323943664	-4.519083969465648	-0.732824427480916	-1.8473282442748091	-0.6026986506746627	-0.2848575712143928	-0.04497751124437781	1257.8754578754579	99.6328341189596	29.07409331529052	
1.771340475540284E12	3.293478260869565	9.554347826086957	-3.0652173913043477	1.2758827049670856	7.830041891083184	-5.824057450628366	3929.6703296703295	1917.216117216117	1.0	7.0681931309109	141.47887323943664	-4.595419847328244	-1.4198473282442747	-0.6870229007633587	-0.5997001499250375	-0.2893553223388306	-0.043478260869565216	1250.5494505494505	99.62999408260848	29.07409331529052	
1.7713404755598186E12	3.25	9.652173913043478	-3.0760869565217392	1.3022142429682824	7.906642728904847	-5.812088569718731	3904.7619047619046	1884.9816849816848	1.0	7.073298362496968	141.37675929267414	-4.351145038167939	-0.48854961832061067	-1.8473282442748091	-0.5997001499250375	-0.2833583208395802	-0.050974512743628186	1242.4908424908424	99.6328341189596	29.07409331529052	
1.7713404755793533E12	3.141304347826087	9.684782608695652	-3.0869565217391304	1.20885697187313	7.97606223818073	-5.812088569718731	3901.8315018315016	1874.7252747252746	1.0	7.073298362496968	141.37675929267414	-4.793893129770992	1.0687022900763359	-1.9389312977099236	-0.5967016491754122	-0.272863568215892	-0.050974512743628186	1240.2930402930401	99.62147399022354	29.07409331529052	
1.771340475598888E12	3.152173913043478	9.619565217391305	-3.0652173913043477	1.1370436864153202	7.937761819269898	-5.826451226810293	3929.6703296703295	1904.0293040293038	1.0	7.073298362496968	141.37675929267414	-5.435114503816794	0.9770992366412213	-1.5572519083969465	-0.5892053973013494	-0.26836581709145424	-0.05247376311844078	1243.956043956044	99.62715404903544	29.07409331529052	
1.7713404756184226E12	3.141304347826087	9.58695652173913	-3.010869565217391	1.163375224416517	7.877917414721724	-5.769000598444046	3920.879120879121	1898.168498168498	1.0	7.073298362496968	141.37675929267414	-5.6183206106870225	1.099236641221374	-0.366412213740458	-0.5907046476761619	-0.2863568215892054	-0.043478260869565216	1255.6776556776556	99.62715404903544	29.07409331529052	
1.7713404756379573E12	3.2391304347826084	9.641304347826086	-3.010869565217391	1.2112507480550567	7.911430281268701	-5.759425493716337	3929.6703296703295	1911.3553113553112	1.0	7.078403594083037	141.27479264334656	-5.038167938931298	1.450381679389313	-0.6717557251908397	-0.5997001499250375	-0.2833583208395802	-0.05247376311844078	1271.7948717948716	99.62147399022354	29.07409331529052	
1.771340475657492E12	3.282608695652174	9.695652173913043	-2.9891304347826084	1.3141831238779174	7.992818671454219	-5.759425493716337	3929.6703296703295	1915.7509157509155	1.0	7.078403594083037	141.27479264334656	-5.099236641221374	2.198473282442748	-0.6870229007633587	-0.6011994002998501	-0.27436281859070466	-0.050974512743628186	1297.4358974358975	99.62147399022354	29.07409331529052	
1.7713404756770266E12	3.25	9.66304347826087	-2.9891304347826084	1.2734889287851585	7.988031119090365	-5.754637941352484	3922.344322344322	1908.4249084249084	1.0	7.078403594083037	141.27479264334656	-5.938931297709924	3.0839694656488548	-0.8091603053435115	-0.6041979010494752	-0.27436281859070466	-0.04497751124437781	1320.14652014652	99.62229145711905	29.079118193034084	
1.7713404756965613E12	3.282608695652174	9.608695652173912	-2.967391304347826	1.2974266906044285	7.932974266906044	-5.749850388988629	3928.205128205128	1912.8205128205127	1.0	7.078403594083037	141.27479264334656	-6.137404580152672	2.7022900763358777	-0.3053435114503817	-0.5997001499250375	-0.2638680659670165	-0.041979010494752625	1330.4029304029302	99.6279715622499	29.079118193034084	
1.771340475716096E12	3.358695652173913	9.597826086956522	-2.934782608695652	1.3764213046080191	7.889886295631358	-5.690005984440455	3907.6923076923076	1890.8424908424906	1.0	7.078403594083037	141.27479264334656	-6.106870229007633	2.259541984732824	-0.549618320610687	-0.6011994002998501	-0.29535232383808097	-0.041979010494752625	1336.263736263736	99.62229145711905	29.079118193034084	
1.7713404757356309E12	3.3043478260869565	9.641304347826086	-2.8478260869565215	1.3429084380610412	7.92818671454219	-5.6325553560742065	3929.6703296703295	1908.4249084249084	1.0	7.083508825669104	141.17297297297299	-5.358778625954198	2.748091603053435	-0.8091603053435115	-0.6041979010494752	-0.2908545727136432	-0.041979010494752625	1350.18315018315	99.63081161898249	29.079118193034084	
1.7713404757551655E12	3.293478260869565	9.695652173913043	-2.9130434782608696	1.3093955715140635	8.002393776181927	-5.6325553560742065	3929.6703296703295	1914.2857142857142	1.0	7.083508825669104	141.17297297297299	-5.1603053435114505	3.7557251908396947	-1.3587786259541985	-0.5967016491754122	-0.2863568215892054	-0.06146926536731634	1360.4395604395604	99.6279715622499	29.079118193034084	
1.7713404757747002E12	3.2391304347826084	9.706521739130434	-2.934782608695652	1.2854578096947935	7.992818671454219	-5.690005984440455	3920.879120879121	1894.5054945054944	1.0	7.083508825669104	141.17297297297299	-4.9465648854961835	4.65648854961832	-1.465648854961832	-0.5952023988005997	-0.2818590704647676	-0.06146926536731634	1357.5091575091574	99.63081161898249	29.079118193034084	
1.7713404757942349E12	3.2391304347826084	9.66304347826087	-2.9891304347826084	1.2591262716935967	7.956912028725314	-5.73309395571514	3901.8315018315016	1876.923076923077	1.0	7.083508825669104	141.17297297297299	-5.419847328244274	4.9465648854961835	-1.3282442748091603	-0.5982008995502248	-0.2833583208395802	-0.04947526236881559	1361.1721611721612	99.63365167849321	29.079118193034084	
1.7713404758137695E12	3.282608695652174	9.619565217391305	-3.010869565217391	1.2878515858767206	7.921005385996409	-5.7522441651705565	3929.6703296703295	1905.4945054945053	1.0	7.083508825669104	141.17297297297299	-5.740458015267175	4.625954198473282	-0.6412213740458015	-0.5967016491754122	-0.2623688155922039	-0.05247376311844078	1374.3589743589744	99.63081161898249	29.079118193034084	
1.7713404758333042E12	3.260869565217391	9.652173913043478	-2.9565217391304346	1.2782764811490126	7.937761819269898	-5.711549970077797	3929.6703296703295	1913.5531135531135	1.0	7.088614057255172	141.07129996398993	-5.6183206106870225	3.7862595419847325	-0.21374045801526717	-0.5982008995502248	-0.28785607196401797	-0.05397301349325337	1378.021978021978	99.63081161898249	29.079118193034084	
1.7713404758528389E12	3.260869565217391	9.630434782608695	-2.934782608695652	1.2687013764213046	7.885098743267505	-5.6804308797127465	3925.274725274725	1914.2857142857142	1.0	7.088614057255172	141.07129996398993	-5.893129770992366	3.0534351145038165	-0.549618320610687	-0.6011994002998501	-0.2863568215892054	-0.037481259370314844	1372.161172161172	99.62513150829542	29.079118193034084	
1.7713404758723735E12	3.217391304347826	9.597826086956522	-2.891304347826087	1.2495511669658887	7.877917414721724	-5.639736684619988	3906.227106227106	1884.9816849816848	1.0	7.088614057255172	141.07129996398993	-6.290076335877862	2.1221374045801524	-0.2900763358778626	-0.5982008995502248	-0.27436281859070466	-0.050974512743628186	1368.4981684981683	99.6279715622499	29.079118193034084	
1.7713404758919082E12	3.282608695652174	9.58695652173913	-2.9130434782608696	1.2639138240574506	7.875523638539796	-5.661280670257331	3931.135531135531	1913.5531135531135	1.0	7.088614057255172	141.07129996398993	-5.740458015267175	1.7557251908396947	-0.04580152671755725	-0.608695652173913	-0.2833583208395802	-0.034482758620689655	1373.6263736263736	99.6279715622499	29.079118193034084	
1.7713404759114429E12	3.3043478260869565	9.652173913043478	-2.9130434782608696	1.3022142429682824	7.909036505086775	-5.658886894075404	3931.135531135531	1922.344322344322	1.0	7.09371928884124	140.9697732997481	-5.007633587786259	1.9083969465648853	-0.22900763358778625	-0.6041979010494752	-0.29235382308845576	-0.05397301349325337	1372.8937728937728	99.63365167849321	29.079118193034084	
1.7713404759309775E12	3.391304347826087	9.695652173913043	-2.9239130434782608	1.362058647516457	7.959305804907241	-5.661280670257331	3923.8095238095234	1910.6227106227104	1.0	7.09371928884124	140.9697732997481	-5.312977099236641	2.0763358778625953	0.32061068702290074	-0.6071964017991004	-0.29235382308845576	-0.038980509745127435	1373.6263736263736	99.63365167849321	29.079118193034084	
1.7713404759505122E12	3.5	9.717391304347826	-2.934782608695652	1.4673847995212448	8.019150209455416	-5.687612208258527	3901.8315018315016	1881.3186813186812	1.0	7.09371928884124	140.9697732997481	-5.450381679389313	2.2900763358778624	0.4427480916030534	-0.6071964017991004	-0.2863568215892054	-0.043478260869565216	1372.8937728937728	99.6279715622499	29.079118193034084	
1.7713404759700469E12	3.4782608695652173	9.695652173913043	-2.9130434782608696	1.5607420706163972	8.011968880909635	-5.690005984440455	3931.135531135531	1912.8205128205127	1.0	7.09371928884124	140.9697732997481	-5.694656488549618	2.1526717557251906	0.3511450381679389	-0.6026986506746627	-0.280359820089955	-0.04947526236881559	1366.3003663003662	99.63365167849321	29.079118193034084	
1.7713404759895815E12	3.4782608695652173	9.67391304347826	-2.8478260869565215	1.5296229802513464	7.988031119090365	-5.613405146618791	3931.135531135531	1921.6117216117216	1.0	7.09371928884124	140.9697732997481	-5.847328244274809	1.6793893129770991	-0.5038167938931297	-0.6101949025487257	-0.2848575712143928	-0.046476761619190406	1297.4358974358975	99.63365167849321	29.079118193034084	
1.7713404760091165E12	3.5	9.695652173913043	-2.8260869565217392	1.5248354278874925	7.97606223818073	-5.543985637342908	3932.6007326007325	1919.4139194139193	1.0	7.09371928884124	140.9697732997481	-5.755725190839694	1.8931297709923662	-0.9923664122137404	-0.6026986506746627	-0.3028485757121439	-0.038980509745127435	1108.4249084249084	99.63365167849321	29.079118193034084	
1.7713404760286511E12	3.4565217391304346	9.66304347826087	-2.8369565217391304	1.4889287851585877	7.983243566726511	-5.572710951526032	3906.227106227106	1885.7142857142856	1.0	7.098824520427308	140.86839266450917	-5.740458015267175	2.1068702290076335	-1.6335877862595418	-0.5997001499250375	-0.29385307346326833	-0.047976011994003	915.7509157509157	99.6279715622499	29.079118193034084	
1.7713404760481858E12	3.391304347826087	9.66304347826087	-2.8478260869565215	1.4625972471573907	7.937761819269898	-5.587073608617594	3931.135531135531	1914.2857142857142	1.0	7.098824520427308	140.86839266450917	-4.9465648854961835	2.778625954198473	-1.8473282442748091	-0.6026986506746627	-0.2788605697151424	-0.05547226386806597	898.9010989010989	99.62513150829542	29.079118193034084	
1.7713404760677205E12	3.434782608695652	9.66304347826087	-2.902173913043478	1.4458408138839018	7.937761819269898	-5.6325553560742065	3931.135531135531	1922.344322344322	1.0	7.098824520427308	140.86839266450917	-4.885496183206107	3.1908396946564883	-2.3053435114503817	-0.608695652173913	-0.29235382308845576	-0.04047976011994003	1066.6666666666665	99.62513150829542	29.079118193034084	
1.7713404760872551E12	3.402173913043478	9.67391304347826	-2.891304347826087	1.4434470377019748	7.937761819269898	-5.646918013165769	3922.344322344322	1909.8901098901097	1.0	7.098824520427308	140.86839266450917	-4.519083969465648	3.129770992366412	-1.9694656488549618	-0.6071964017991004	-0.2563718140929535	-0.050974512743628186	1309.89010989011	99.63081161898249	29.079118193034084	
1.7713404761067898E12	3.3478260869565215	9.706521739130434	-2.8478260869565215	1.374027528426092	7.985637342908438	-5.620586475164572	3901.8315018315016	1882.051282051282	1.0	7.098824520427308	140.86839266450917	-4.534351145038168	2.7022900763358777	-2.030534351145038	-0.6041979010494752	-0.3028485757121439	-0.047976011994003	1519.4139194139193	99.6279715622499	29.079118193034084	
1.7713404761263245E12	3.3152173913043477	9.695652173913043	-2.858695652173913	1.3381208856971873	7.9952124476361455	-5.599042489527229	3931.135531135531	1912.8205128205127	1.0	7.103929752013375	140.76715774344234	-4.641221374045801	1.8015267175572518	-1.9541984732824427	-0.6071964017991004	-0.29385307346326833	-0.041979010494752625	1639.5604395604394	99.6279715622499	29.079118193034084	
1.7713404761458591E12	3.3043478260869565	9.717391304347826	-2.858695652173913	1.3165769000598444	7.990424895272292	-5.5846798324356675	3926.7399267399264	1908.4249084249084	1.0	7.103929752013375	140.76715774344234	-4.564885496183206	1.3740458015267174	-2.1374045801526718	-0.6041979010494752	-0.2848575712143928	-0.050974512743628186	1665.9340659340658	99.63365167849321	29.079118193034084	
1.7713404761653938E12	3.3260869565217392	9.695652173913043	-2.891304347826087	1.3357271095152603	8.002393776181927	-5.603830041891083	3923.8095238095234	1906.9597069597069	1.0	7.103929752013375	140.76715774344234	-4.8396946564885495	0.9770992366412213	-1.5725190839694656	-0.5997001499250375	-0.26686656671664166	-0.05697151424287856	1632.2344322344322	99.63365167849321	29.079118193034084	
1.7713404761849285E12	3.3478260869565215	9.706521739130434	-2.8478260869565215	1.3572710951526032	7.983243566726511	-5.587073608617594	3906.227106227106	1882.7838827838827	1.0	7.103929752013375	140.76715774344234	-4.534351145038168	1.0229007633587786	-1.4961832061068703	-0.6041979010494752	-0.2638680659670165	-0.047976011994003	1563.3699633699632	99.63649174078202	29.079118193034084	
1.7713404762044631E12	3.391304347826087	9.684782608695652	-2.8369565217391304	1.412327947336924	7.956912028725314	-5.572710951526032	3931.135531135531	1912.8205128205127	1.0	7.103929752013375	140.76715774344234	-4.854961832061068	0.8702290076335878	-1.3893129770992365	-0.6056971514242878	-0.27436281859070466	-0.046476761619190406	1486.4468864468863	99.63081161898249	29.079118193034084	
1.7713404762239978E12	3.4130434782608696	9.66304347826087	-2.782608695652174	1.4506283662477557	7.961699581089168	-5.539198084979055	3931.135531135531	1921.6117216117216	1.0	7.103929752013375	140.76715774344234	-4.870229007633587	0.41221374045801523	-1.3587786259541985	-0.6011994002998501	-0.29685157421289354	-0.04047976011994003	1418.3150183150183	99.63081161898249	29.079118193034084	
1.7713404762435325E12	3.4891304347826084	9.67391304347826	-2.782608695652174	1.5224416517055654	7.959305804907241	-5.546379413524836	3922.344322344322	1909.8901098901097	1.0	7.109034983599443	140.6660682226212	-4.381679389312977	0.4427480916030534	-1.4809160305343512	-0.6146926536731634	-0.2848575712143928	-0.05247376311844078	1365.5677655677655	99.63081161898249	29.079118193034084	
1.7713404762630671E12	3.467391304347826	9.684782608695652	-2.782608695652174	1.5152603231597845	7.973668461998803	-5.515260323159785	3929.6703296703295	1915.018315018315	1.0	7.109034983599443	140.6660682226212	-3.801526717557252	0.183206106870229	-1.83206106870229	-0.6041979010494752	-0.2698650674662669	-0.050974512743628186	1326.007326007326	99.63365167849321	29.079118193034084	
1.7713404762826018E12	3.4130434782608696	9.695652173913043	-2.7717391304347827	1.4554159186116098	7.966487133453022	-5.5368043087971275	3931.135531135531	1923.0769230769229	1.0	7.109034983599443	140.6660682226212	-3.5877862595419847	0.5343511450381679	-2.33587786259542	-0.608695652173913	-0.29235382308845576	-0.037481259370314844	1300.3663003663003	99.62513150829542	29.079118193034084	
1.7713404763021367E12	3.3804347826086953	9.695652173913043	-2.8369565217391304	1.4410532615200478	7.985637342908438	-5.553560742070617	3929.6703296703295	1918.6813186813185	1.0	7.11414021518551	140.56512378902048	-3.0229007633587783	0.21374045801526717	-2.5343511450381677	-0.6056971514242878	-0.2908545727136432	-0.05397301349325337	1285.7142857142856	99.63365167849321	29.079118193034084	
1.7713404763216714E12	3.3369565217391304	9.695652173913043	-2.858695652173913	1.3764213046080191	7.988031119090365	-5.570317175344105	3931.135531135531	1923.8095238095236	1.0	7.11414021518551	140.56512378902048	-3.0076335877862594	0.030534351145038167	-2.381679389312977	-0.6041979010494752	-0.2908545727136432	-0.046476761619190406	1279.120879120879	99.6279715622499	29.079118193034084	
1.771340476341206E12	3.358695652173913	9.684782608695652	-2.858695652173913	1.3644524236983842	8.0	-5.613405146618791	3919.4139194139193	1909.1575091575091	1.0	7.11414021518551	140.56512378902048	-3.2519083969465647	-0.22900763358778625	-2.2748091603053435	-0.6041979010494752	-0.280359820089955	-0.04497751124437781	1291.5750915750914	99.63081161898249	29.079118193034084	
1.7713404763607407E12	3.3369565217391304	9.66304347826087	-2.891304347826087	1.3883901855176541	7.980849790544584	-5.611011370436864	3931.135531135531	1920.8791208791208	1.0	7.119245446771578	140.46432413051275	-2.9923664122137406	0.0	-2.0	-0.6026986506746627	-0.2788605697151424	-0.043478260869565216	1289.3772893772893	99.6279715622499	29.079118193034084	
1.7713404763802754E12	3.3478260869565215	9.67391304347826	-2.858695652173913	1.371633752244165	7.961699581089168	-5.599042489527229	3931.135531135531	1923.8095238095236	1.0	7.119245446771578	140.46432413051275	-3.0839694656488548	-0.10687022900763359	-2.3664122137404577	-0.6146926536731634	-0.2893553223388306	-0.04497751124437781	1278.3882783882782	99.63365167849321	29.079118193034084	
1.77134047639981E12	3.369565217391304	9.695652173913043	-2.891304347826087	1.395571514063435	7.964093357271095	-5.63016157989228	3920.879120879121	1904.0293040293038	1.0	7.119245446771578	140.46432413051275	-3.3587786259541983	-0.732824427480916	-2.0610687022900764	-0.6071964017991004	-0.29535232383808097	-0.04947526236881559	1279.8534798534797	99.6279715622499	29.079118193034084	
1.7713404764193447E12	3.358695652173913	9.67391304347826	-2.891304347826087	1.390783961699581	7.985637342908438	-5.625374027528426	3929.6703296703295	1913.5531135531135	1.0	7.124350678357647	140.3636689358653	-3.2519083969465647	-0.8091603053435115	-2.1068702290076335	-0.6041979010494752	-0.27436281859070466	-0.05397301349325337	1300.3663003663003	99.63081161898249	29.079118193034084	
1.7713404764388794E12	3.402173913043478	9.684782608695652	-2.869565217391304	1.417115499700778	7.983243566726511	-5.637342908438061	3929.6703296703295	1916.4835164835163	1.0	7.124350678357647	140.3636689358653	-3.282442748091603	-0.6564885496183206	-1.9236641221374045	-0.6071964017991004	-0.2833583208395802	-0.043478260869565216	1326.007326007326	99.62513150829542	29.079118193034084	
1.771340476458414E12	3.4130434782608696	9.67391304347826	-2.891304347826087	1.4458408138839018	7.966487133453022	-5.661280670257331	3926.7399267399264	1909.8901098901097	1.0	7.129455909943715	140.26315789473685	-2.8702290076335877	-0.6870229007633587	-1.9389312977099236	-0.5967016491754122	-0.2623688155922039	-0.04497751124437781	1342.1245421245421	99.62229145711905	29.079118193034084	
1.7713404764779487E12	3.434782608695652	9.66304347826087	-2.9130434782608696	1.5008976660682225	7.973668461998803	-5.646918013165769	3922.344322344322	1906.227106227106	1.0	7.129455909943715	140.26315789473685	-2.7938931297709924	-0.8091603053435115	-1.984732824427481	-0.6071964017991004	-0.2623688155922039	-0.05697151424287856	1347.2527472527472	99.6279715622499	29.079118193034084	
1.7713404764974834E12	3.4130434782608696	9.695652173913043	-2.880434782608696	1.4578096947935368	7.971274685816876	-5.637342908438061	3904.7619047619046	1881.3186813186812	1.0	7.129455909943715	140.26315789473685	-3.114503816793893	-0.7022900763358778	-2.4580152671755724	-0.6056971514242878	-0.26686656671664166	-0.06746626686656672	1342.8571428571427	99.63081161898249	29.079118193034084	
1.771340476517018E12	3.3804347826086953	9.684782608695652	-2.880434782608696	1.417115499700778	7.978456014362657	-5.615798922800718	3901.8315018315016	1873.260073260073	1.0	7.134561141529782	140.16279069767444	-3.1755725190839694	-0.33587786259541985	-2.6259541984732824	-0.6041979010494752	-0.2788605697151424	-0.046476761619190406	1337.7289377289376	99.6279715622499	29.079118193034084	
1.7713404765365527E12	3.3260869565217392	9.684782608695652	-2.902173913043478	1.390783961699581	7.983243566726511	-5.63016157989228	3929.6703296703295	1904.0293040293038	1.0	7.134561141529782	140.16279069767444	-3.3587786259541983	-0.2748091603053435	-2.7938931297709924	-0.6071964017991004	-0.2788605697151424	-0.05247376311844078	1327.4725274725274	99.62229145711905	29.079118193034084	
1.7713404765560874E12	3.3478260869565215	9.684782608695652	-2.902173913043478	1.3668461998803112	7.980849790544584	-5.673249551166966	3920.879120879121	1898.168498168498	1.0	7.13966637311585	140.06256703611012	-3.2519083969465647	0.1984732824427481	-2.564885496183206	-0.6041979010494752	-0.2833583208395802	-0.046476761619190406	1309.1575091575091	99.6279715622499	29.079118193034084	
1.7713404765756223E12	3.3369565217391304	9.67391304347826	-2.9130434782608696	1.362058647516457	7.988031119090365	-5.6804308797127465	3901.8315018315016	1877.6556776556774	1.0	7.144771604701918	139.96248660235798	-3.4198473282442747	-0.12213740458015267	-2.748091603053435	-0.6041979010494752	-0.26686656671664166	-0.05397301349325337	1293.040293040293	99.6279715622499	29.079118193034084	
1.771340476595157E12	3.3478260869565215	9.66304347826087	-2.934782608695652	1.3476959904248953	7.964093357271095	-5.697187312986236	3929.6703296703295	1905.4945054945053	1.0	7.144771604701918	139.96248660235798	-3.2671755725190836	0.0916030534351145	-2.4732824427480917	-0.6026986506746627	-0.2833583208395802	-0.047976011994003	1294.5054945054944	99.63081161898249	29.079118193034084	
1.7713404766146917E12	3.3478260869565215	9.66304347826087	-2.9239130434782608	1.3644524236983842	7.95212447636146	-5.666068222621185	3928.205128205128	1913.5531135531135	1.0	7.144771604701918	139.96248660235798	-3.7862595419847325	0.41221374045801523	-2.519083969465649	-0.6116941529235382	-0.2773613193403298	-0.046476761619190406	1292.3076923076922	99.63365167849321	29.079118193034084	
1.7713404766342263E12	3.3369565217391304	9.652173913043478	-2.891304347826087	1.385996409335727	7.966487133453022	-5.670855774985038	3929.6703296703295	1915.7509157509155	1.0	7.149876836287985	139.86254908961087	-3.9847328244274807	-0.33587786259541985	-2.3053435114503817	-0.6011994002998501	-0.272863568215892	-0.04497751124437781	1289.3772893772893	99.6279715622499	29.079118193034084	
1.771340476653761E12	3.358695652173913	9.67391304347826	-2.9130434782608696	1.3572710951526032	7.990424895272292	-5.651705565529623	3922.344322344322	1907.6923076923076	1.0	7.1549820678740526	139.76275419193723	-3.9389312977099236	-0.3053435114503817	-2.5801526717557253	-0.5982008995502248	-0.2773613193403298	-0.037481259370314844	1296.7032967032967	99.62513150829542	29.079118193034084	
1.7713404766732957E12	3.293478260869565	9.684782608695652	-2.9239130434782608	1.3309395571514062	7.97606223818073	-5.651705565529623	3901.8315018315016	1880.5860805860805	1.0	7.160087299460121	139.6631016042781	-3.9083969465648853	-0.04580152671755725	-2.1374045801526718	-0.6071964017991004	-0.29385307346326833	-0.047976011994003	1298.9010989010987	99.62349653087516	29.069068437837995	
1.7713404766928303E12	3.3043478260869565	9.652173913043478	-2.902173913043478	1.3237582286056253	7.966487133453022	-5.651705565529623	3929.6703296703295	1906.227106227106	1.0	7.160087299460121	139.6631016042781	-3.969465648854962	0.2595419847328244	-2.1221374045801524	-0.5967016491754122	-0.280359820089955	-0.046476761619190406	1304.0293040293038	99.62917654892425	29.069068437837995	
1.771340476712365E12	3.3152173913043477	9.684782608695652	-2.9130434782608696	1.3692399760622382	7.954518252543387	-5.649311789347696	3919.4139194139193	1904.7619047619046	1.0	7.165192531046188	139.56359102244392	-3.5877862595419847	0.33587786259541985	-2.2748091603053435	-0.6101949025487257	-0.280359820089955	-0.043478260869565216	1312.087912087912	99.6263365385107	29.069068437837995	
1.7713404767318997E12	3.3369565217391304	9.66304347826087	-2.9130434782608696	1.3405146618791142	7.983243566726511	-5.67803710353082	3929.6703296703295	1913.5531135531135	1.0	7.170297762632257	139.46422214311144	-4.045801526717557	-0.015267175572519083	-2.3206106870229006	-0.6101949025487257	-0.2833583208395802	-0.037481259370314844	1306.9597069597069	99.6263365385107	29.069068437837995	
1.7713404767514343E12	3.3043478260869565	9.67391304347826	-2.902173913043478	1.3572710951526032	7.971274685816876	-5.6804308797127465	3931.135531135531	1922.344322344322	1.0	7.175402994218325	139.3649946638207	-3.7862595419847325	0.6259541984732824	-2.3206106870229006	-0.6041979010494752	-0.28785607196401797	-0.04047976011994003	1299.6336996336995	99.6263365385107	29.069068437837995	
1.771340476770969E12	3.282608695652174	9.66304347826087	-2.902173913043478	1.3189706762417714	7.980849790544584	-5.661280670257331	3926.7399267399264	1911.3553113553112	1.0	7.175402994218325	139.3649946638207	-4.061068702290076	0.12213740458015267	-1.6946564885496183	-0.6026986506746627	-0.2653673163418291	-0.04947526236881559	1314.2857142857142	99.62917654892425	29.069068437837995	
1.7713404767905037E12	3.3260869565217392	9.67391304347826	-2.891304347826087	1.3405146618791142	7.964093357271095	-5.644524236983842	3920.879120879121	1906.9597069597069	1.0	7.18561345739046	139.1669626998224	-4.351145038167939	-0.04580152671755725	-1.9694656488549618	-0.5967016491754122	-0.27586206896551724	-0.05547226386806597	1334.7985347985348	99.6263365385107	29.069068437837995	
1.7713404768100383E12	3.282608695652174	9.67391304347826	-2.902173913043478	1.3117893476959903	7.956912028725314	-5.65409934171155	3904.7619047619046	1882.051282051282	1.0	7.18561345739046	139.1669626998224	-3.9541984732824424	0.22900763358778625	-1.9083969465648853	-0.6131934032983508	-0.2773613193403298	-0.05847076461769115	1329.6703296703297	99.62917654892425	29.069068437837995	
1.771340476829573E12	3.3260869565217392	9.684782608695652	-2.934782608695652	1.3429084380610412	7.966487133453022	-5.685218432076601	3929.6703296703295	1906.9597069597069	1.0	7.195823920562598	138.9694927279177	-3.709923664122137	0.38167938931297707	-2.2748091603053435	-0.608695652173913	-0.280359820089955	-0.047976011994003	1325.2747252747251	99.62917654892425	29.069068437837995	
1.771340476849108E12	3.3152173913043477	9.66304347826087	-2.934782608695652	1.3357271095152603	7.97606223818073	-5.67803710353082	3931.135531135531	1920.14652014652	1.0	7.195823920562598	138.9694927279177	-4.244274809160305	0.8244274809160305	-2.0763358778625953	-0.6041979010494752	-0.2848575712143928	-0.046476761619190406	1324.5421245421244	99.62349653087516	29.069068437837995	
1.7713404768686426E12	3.293478260869565	9.684782608695652	-2.9130434782608696	1.3285457809694794	7.973668461998803	-5.675643327348893	3917.948717948718	1902.5641025641025	1.0	7.200929152148666	138.87096774193546	-4.0	0.5801526717557252	-1.9236641221374045	-0.6026986506746627	-0.26836581709145424	-0.050974512743628186	1330.4029304029302	99.6263365385107	29.069068437837995	
1.7713404768881772E12	3.3369565217391304	9.706521739130434	-2.9239130434782608	1.3429084380610412	7.973668461998803	-5.673249551166966	3931.135531135531	1918.6813186813185	1.0	7.211139615320801	138.67433628318582	-4.519083969465648	0.6259541984732824	-1.5572519083969465	-0.5982008995502248	-0.2908545727136432	-0.04497751124437781	1348.7179487179487	99.62917654892425	29.069068437837995	
1.771340476907712E12	3.369565217391304	9.706521739130434	-2.880434782608696	1.3644524236983842	7.9952124476361455	-5.661280670257331	3931.135531135531	1923.0769230769229	1.0	7.216244846906868	138.57622921825256	-4.183206106870228	1.2061068702290076	-1.4961832061068703	-0.6116941529235382	-0.29385307346326833	-0.037481259370314844	1359.7069597069597	99.6263365385107	29.069068437837995	
1.7713404769272466E12	3.3369565217391304	9.66304347826087	-2.880434782608696	1.395571514063435	7.983243566726511	-5.637342908438061	3929.6703296703295	1918.6813186813185	1.0	7.221350078492936	138.47826086956522	-4.580152671755725	0.9465648854961831	-1.3129770992366412	-0.6026986506746627	-0.2698650674662669	-0.05697151424287856	1366.3003663003662	99.62917654892425	29.069068437837995	
1.7713404769467812E12	3.3804347826086953	9.641304347826086	-2.869565217391304	1.3883901855176541	7.923399162178336	-5.615798922800718	3931.135531135531	1923.0769230769229	1.0	7.226455310079004	138.38043094312962	-4.625954198473282	1.1908396946564885	-1.3587786259541985	-0.6071964017991004	-0.2908545727136432	-0.050974512743628186	1372.161172161172	99.63201656211582	29.069068437837995	
1.771340476966316E12	3.3804347826086953	9.641304347826086	-2.8478260869565215	1.4314781567923398	7.942549371633752	-5.60622381807301	3907.6923076923076	1893.040293040293	1.0	7.231560541665072	138.28273914578185	-3.9847328244274807	0.7633587786259541	-1.5725190839694656	-0.6026986506746627	-0.2908545727136432	-0.041979010494752625	1375.8241758241757	99.6263365385107	29.069068437837995	
1.7713404769858506E12	3.3478260869565215	9.66304347826087	-2.869565217391304	1.417115499700778	7.925792938360263	-5.615798922800718	3932.6007326007325	1911.3553113553112	1.0	7.23666577325114	138.18518518518516	-3.9389312977099236	1.0534351145038168	-1.8015267175572518	-0.6026986506746627	-0.2893553223388306	-0.04047976011994003	1378.021978021978	99.6263365385107	29.069068437837995	
1.7713404770053853E12	3.293478260869565	9.695652173913043	-2.8369565217391304	1.3141831238779174	7.971274685816876	-5.634949132256134	3929.6703296703295	1915.7509157509155	1.0	7.246876236423274	137.99048960901726	-3.801526717557252	1.0687022900763359	-1.9694656488549618	-0.5997001499250375	-0.2908545727136432	-0.04047976011994003	1387.5457875457876	99.6263365385107	29.069068437837995	
1.77134047702492E12	3.3043478260869565	9.67391304347826	-2.869565217391304	1.2806702573309394	7.978456014362657	-5.618192698982645	3917.948717948718	1901.098901098901	1.0	7.257086699595411	137.7963418923672	-4.030534351145038	0.8244274809160305	-1.465648854961832	-0.6026986506746627	-0.2578710644677661	-0.05697151424287856	1383.8827838827838	99.6263365385107	29.069068437837995	
1.7713404770444546E12	3.2717391304347827	9.695652173913043	-2.880434782608696	1.3022142429682824	7.985637342908438	-5.637342908438061	3903.296703296703	1873.9926739926739	1.0	7.262191931181479	137.6994727592267	-3.541984732824427	1.1450381679389312	-1.3129770992366412	-0.6026986506746627	-0.2623688155922039	-0.05697151424287856	1372.161172161172	99.62065652601765	29.069068437837995	
1.7713404770639893E12	3.358695652173913	9.728260869565217	-2.902173913043478	1.3788150807899462	8.023937761819269	-5.65409934171155	3931.135531135531	1910.6227106227104	1.0	7.267297162767546	137.60273972602738	-3.9389312977099236	0.8396946564885496	-0.9923664122137404	-0.6026986506746627	-0.272863568215892	-0.04947526236881559	1368.4981684981683	99.6263365385107	29.069068437837995	
1.771340477083524E12	3.358695652173913	9.684782608695652	-2.891304347826087	1.395571514063435	8.009575104727707	-5.651705565529623	3929.6703296703295	1915.018315018315	1.0	7.272402394353614	137.5061425061425	-3.633587786259542	0.6870229007633587	-1.7557251908396947	-0.6011994002998501	-0.2833583208395802	-0.04497751124437781	1377.2893772893772	99.63201656211582	29.069068437837995	
1.7713404771030586E12	3.2717391304347827	9.706521739130434	-2.869565217391304	1.3165769000598444	8.0	-5.615798922800718	3931.135531135531	1922.344322344322	1.0	7.282612857525751	137.31335436382753	-4.244274809160305	0.2900763358778626	-1.7557251908396947	-0.6026986506746627	-0.2773613193403298	-0.037481259370314844	1339.194139194139	99.62349653087516	29.069068437837995	
1.7713404771225935E12	3.282608695652174	9.684782608695652	-2.858695652173913	1.2974266906044285	8.016756433273489	-5.613405146618791	3928.205128205128	1917.216117216117	1.0	7.287718089111817	137.21716287215412	-4.259541984732825	0.183206106870229	-1.4045801526717556	-0.5997001499250375	-0.280359820089955	-0.046476761619190406	1173.6263736263736	99.6263365385107	29.069068437837995	
1.7713404771421282E12	3.3478260869565215	9.67391304347826	-2.891304347826087	1.3381208856971873	7.966487133453022	-5.627767803710353	3903.296703296703	1878.3882783882782	1.0	7.292823320697885	137.12110605530276	-4.229007633587786	-0.0916030534351145	-1.2671755725190839	-0.608695652173913	-0.2893553223388306	-0.05997001499250375	963.3699633699633	99.63201656211582	29.069068437837995	
1.7713404771616628E12	3.358695652173913	9.630434782608695	-2.869565217391304	1.3668461998803112	7.9401555954518255	-5.661280670257331	3929.6703296703295	1905.4945054945053	1.0	7.303033783870021	136.92939531632297	-3.66412213740458	-0.030534351145038167	-1.6335877862595418	-0.6041979010494752	-0.2773613193403298	-0.05697151424287856	912.8205128205127	99.6263365385107	29.069068437837995	
1.7713404771811975E12	3.402173913043478	9.630434782608695	-2.880434782608696	1.417115499700778	7.923399162178336	-5.615798922800718	3916.4835164835163	1897.4358974358972	1.0	7.313244247042157	136.73821989528795	-3.8625954198473282	-0.12213740458015267	-1.83206106870229	-0.6026986506746627	-0.2773613193403298	-0.06146926536731634	1068.131868131868	99.6263365385107	29.069068437837995	
1.7713404772007322E12	3.402173913043478	9.619565217391305	-2.869565217391304	1.4410532615200478	7.930580490724117	-5.63016157989228	3931.135531135531	1917.9487179487178	1.0	7.318349478628225	136.6428322288106	-3.633587786259542	-0.21374045801526717	-1.8931297709923662	-0.6071964017991004	-0.2788605697151424	-0.04947526236881559	1306.9597069597069	99.62065652601765	29.069068437837995	
1.7713404772202668E12	3.4239130434782608	9.684782608695652	-2.869565217391304	1.4625972471573907	7.9401555954518255	-5.63016157989228	3931.135531135531	1923.0769230769229	1.0	7.32855994180036	136.45245559038662	-3.6030534351145036	-0.1984732824427481	-2.0610687022900764	-0.5997001499250375	-0.28785607196401797	-0.046476761619190406	1506.9597069597069	99.62349653087516	29.069068437837995	
1.7713404772398015E12	3.402173913043478	9.706521739130434	-2.9239130434782608	1.419509275882705	7.980849790544584	-5.634949132256134	3928.205128205128	1917.9487179487178	1.0	7.333665173386427	136.35746606334843	-3.297709923664122	-0.2748091603053435	-2.091603053435114	-0.6041979010494752	-0.25337331334332835	-0.05547226386806597	1611.7216117216117	99.63201656211582	29.069068437837995	
1.7713404772593362E12	3.358695652173913	9.695652173913043	-2.902173913043478	1.412327947336924	7.997606223818073	-5.658886894075404	3920.879120879121	1902.5641025641025	1.0	7.338770404972495	136.26260869565218	-3.5572519083969465	-0.04580152671755725	-2.259541984732824	-0.6011994002998501	-0.280359820089955	-0.05697151424287856	1621.245421245421	99.63201656211582	29.069068437837995	
1.7713404772788708E12	3.369565217391304	9.717391304347826	-2.934782608695652	1.409934171154997	7.9952124476361455	-5.668461998803112	3906.227106227106	1881.3186813186812	1.0	7.348980868144633	136.0732893365752	-3.5572519083969465	-0.10687022900763359	-2.1526717557251906	-0.6026986506746627	-0.2773613193403298	-0.047976011994003	1583.8827838827838	99.6263365385107	29.069068437837995	
1.7713404772984055E12	3.3478260869565215	9.67391304347826	-2.902173913043478	1.405146618791143	7.961699581089168	-5.6325553560742065	3901.8315018315016	1873.260073260073	1.0	7.359191331316767	135.88449531737774	-4.0	0.2748091603053435	-2.564885496183206	-0.5997001499250375	-0.2698650674662669	-0.041979010494752625	1516.4835164835163	99.6263365385107	29.069068437837995	
1.7713404773179402E12	3.3369565217391304	9.652173913043478	-2.8478260869565215	1.381208856971873	7.95212447636146	-5.618192698982645	3929.6703296703295	1904.0293040293038	1.0	7.364296562902835	135.79029462738302	-4.259541984732825	0.3511450381679389	-1.8931297709923662	-0.5997001499250375	-0.26836581709145424	-0.04947526236881559	1449.084249084249	99.63201656211582	29.069068437837995	
1.7713404773374749E12	3.3478260869565215	9.652173913043478	-2.880434782608696	1.3764213046080191	7.937761819269898	-5.6325553560742065	3915.0183150183148	1890.1098901098899	1.0	7.37450702607497	135.60228452751818	-4.076335877862595	0.21374045801526717	-1.6793893129770991	-0.6026986506746627	-0.26686656671664166	-0.04047976011994003	1395.6043956043954	99.63201656211582	29.069068437837995	
1.7713404773570095E12	3.369565217391304	9.67391304347826	-2.858695652173913	1.385996409335727	7.971274685816876	-5.608617594254937	3901.8315018315016	1875.4578754578754	1.0	7.379612257661037	135.5084745762712	-3.7557251908396947	0.33587786259541985	-2.1221374045801524	-0.6056971514242878	-0.2788605697151424	-0.05397301349325337	1353.113553113553	99.62065652601765	29.069068437837995	
1.7713404773765442E12	3.3804347826086953	9.66304347826087	-2.891304347826087	1.419509275882705	7.956912028725314	-5.608617594254937	3929.6703296703295	1904.7619047619046	1.0	7.389822720833173	135.32124352331607	-3.450381679389313	0.7786259541984732	-1.8473282442748091	-0.6026986506746627	-0.2773613193403298	-0.04047976011994003	1320.14652014652	99.6263365385107	29.069068437837995	
1.771340477396079E12	3.358695652173913	9.66304347826087	-2.891304347826087	1.3668461998803112	7.961699581089168	-5.682824655894674	3928.205128205128	1912.8205128205127	1.0	7.394927952419242	135.2278218847083	-3.450381679389313	1.0076335877862594	-2.1526717557251906	-0.6011994002998501	-0.2863568215892054	-0.041979010494752625	1307.6923076923076	99.6263365385107	29.069068437837995	
1.7713404774156138E12	3.3152173913043477	9.66304347826087	-2.902173913043478	1.3476959904248953	7.985637342908438	-5.6564931178934765	3929.6703296703295	1915.7509157509155	1.0	7.40003318400531	135.13452914798205	-3.2519083969465647	0.8702290076335878	-2.0	-0.6026986506746627	-0.2893553223388306	-0.04947526236881559	1309.1575091575091	99.6263365385107	29.069068437837995	
1.7713404774351484E12	3.260869565217391	9.684782608695652	-2.9130434782608696	1.3117893476959903	7.990424895272292	-5.670855774985038	3906.227106227106	1884.9816849816848	1.0	7.410243647177444	134.94832931450225	-3.7709923664122136	0.2595419847328244	-2.259541984732824	-0.6011994002998501	-0.29235382308845576	-0.047976011994003	1309.1575091575091	99.62349653087516	29.069068437837995	
1.771340477454683E12	3.282608695652174	9.695652173913043	-2.902173913043478	1.2998204667863555	7.997606223818073	-5.67803710353082	3931.135531135531	1913.5531135531135	1.0	7.4204541103495805	134.7626418988648	-3.633587786259542	-0.13740458015267176	-1.9236641221374045	-0.6041979010494752	-0.2833583208395802	-0.04947526236881559	1300.3663003663003	99.62349653087516	29.069068437837995	
1.7713404774742178E12	3.3152173913043477	9.652173913043478	-2.9130434782608696	1.2974266906044285	7.961699581089168	-5.663674446439257	3929.6703296703295	1915.7509157509155	1.0	7.425559341935649	134.66998968717772	-3.5114503816793894	0.12213740458015267	-1.8778625954198473	-0.6026986506746627	-0.27586206896551724	-0.038980509745127435	1287.9120879120878	99.62917654892425	29.069068437837995	
1.7713404774937524E12	3.282608695652174	9.66304347826087	-2.9130434782608696	1.3141831238779174	7.95212447636146	-5.687612208258527	3913.5531135531132	1898.9010989010987	1.0	7.430664573521717	134.57746478873239	-3.709923664122137	0.15267175572519084	-1.7251908396946565	-0.6071964017991004	-0.29235382308845576	-0.038980509745127435	1292.3076923076922	99.62349653087516	29.069068437837995	
1.771340477513287E12	3.3260869565217392	9.652173913043478	-2.902173913043478	1.3644524236983842	7.947336923997606	-5.661280670257331	3929.6703296703295	1912.087912087912	1.0	7.4408750366938525	134.3927958833619	-3.2061068702290076	-0.07633587786259542	-1.816793893129771	-0.6116941529235382	-0.2818590704647676	-0.041979010494752625	1320.14652014652	99.62917654892425	29.069068437837995	
1.7713404775328218E12	3.3260869565217392	9.641304347826086	-2.891304347826087	1.3381208856971873	7.947336923997606	-5.668461998803112	3929.6703296703295	1915.018315018315	1.0	7.44598026827992	134.30065135413096	-3.49618320610687	-0.32061068702290074	-2.33587786259542	-0.5997001499250375	-0.29385307346326833	-0.043478260869565216	1344.3223443223442	99.62065652601765	29.069068437837995	
1.7713404775523564E12	3.369565217391304	9.652173913043478	-2.9130434782608696	1.3692399760622382	7.944943147815679	-5.666068222621185	3928.205128205128	1915.7509157509155	1.0	7.456190731452056	134.11674084217734	-3.5267175572519083	-0.2595419847328244	-2.16793893129771	-0.5937031484257871	-0.2773613193403298	-0.04497751124437781	1356.0439560439559	99.6263365385107	29.069068437837995	
1.771340477571891E12	3.3260869565217392	9.66304347826087	-2.934782608695652	1.3644524236983842	7.95212447636146	-5.65409934171155	3916.4835164835163	1900.3663003663003	1.0	7.461295963038123	134.02497434143004	-3.0839694656488548	-0.07633587786259542	-2.4885496183206106	-0.6071964017991004	-0.2848575712143928	-0.04047976011994003	1353.8461538461538	99.62917654892425	29.069068437837995	
1.7713404775914258E12	3.3369565217391304	9.66304347826087	-2.9239130434782608	1.3788150807899462	7.959305804907241	-5.673249551166966	3904.7619047619046	1879.8534798534797	1.0	7.471506426210258	133.8418175606423	-3.0229007633587783	-0.04580152671755725	-2.259541984732824	-0.608695652173913	-0.2893553223388306	-0.035982008995502246	1339.194139194139	99.62917654892425	29.069068437837995	
1.7713404776109604E12	3.3152173913043477	9.641304347826086	-2.934782608695652	1.371633752244165	7.95212447636146	-5.690005984440455	3901.8315018315016	1872.5274725274724	1.0	7.481716889382394	133.6591606960082	-3.2519083969465647	-0.3969465648854962	-2.4427480916030535	-0.5997001499250375	-0.29685157421289354	-0.041979010494752625	1326.007326007326	99.6263365385107	29.069068437837995	
1.771340477630495E12	3.3152173913043477	9.66304347826087	-2.967391304347826	1.374027528426092	7.956912028725314	-5.690005984440455	3931.135531135531	1909.8901098901097	1.0	7.486822120968462	133.56801909307876	-3.4351145038167936	0.030534351145038167	-2.5801526717557253	-0.608695652173913	-0.29385307346326833	-0.038980509745127435	1306.9597069597069	99.63201656211582	29.069068437837995	
1.7713404776500298E12	3.3152173913043477	9.67391304347826	-2.9456521739130435	1.3381208856971873	7.973668461998803	-5.687612208258527	3910.62271062271	1890.8424908424906	1.0	7.497032584140598	133.38610827374873	-3.6030534351145036	0.16793893129770993	-2.564885496183206	-0.6026986506746627	-0.29235382308845576	-0.047976011994003	1299.6336996336995	99.6263365385107	29.069068437837995	
1.7713404776695647E12	3.282608695652174	9.67391304347826	-2.9891304347826084	1.3093955715140635	7.97606223818073	-5.701974865350089	3901.8315018315016	1874.7252747252746	1.0	7.502137815726666	133.2953385505274	-3.0839694656488548	0.7786259541984732	-2.183206106870229	-0.6056971514242878	-0.27586206896551724	-0.047976011994003	1305.4945054945053	99.62551903067595	29.06404356067651	
1.7713404776890994E12	3.2717391304347827	9.630434782608695	-2.9782608695652173	1.2974266906044285	7.997606223818073	-5.725912627169359	3929.6703296703295	1904.7619047619046	1.0	7.512348278898801	133.11416921508666	-4.809160305343512	0.8702290076335878	-1.9236641221374045	-0.6026986506746627	-0.2773613193403298	-0.047976011994003	1323.8095238095236	99.62835901793005	29.06404356067651	
1.771340477708634E12	3.3043478260869565	9.695652173913043	-2.9565217391304346	1.3237582286056253	8.009575104727707	-5.718731298623578	3928.205128205128	1912.8205128205127	1.0	7.51745351048487	133.02376910016977	-4.0	0.916030534351145	-1.7099236641221374	-0.6026986506746627	-0.2983508245877061	-0.041979010494752625	1347.2527472527472	99.62267904619982	29.06404356067651	
1.7713404777281687E12	3.3478260869565215	9.652173913043478	-2.9456521739130435	1.374027528426092	7.921005385996409	-5.713943746259725	3915.0183150183148	1893.7728937728937	1.0	7.527663973657004	132.84333672431333	-4.717557251908397	0.7786259541984732	-1.9083969465648853	-0.5997001499250375	-0.29235382308845576	-0.05247376311844078	1360.4395604395604	99.62835901793005	29.06404356067651	
1.7713404777477034E12	3.358695652173913	9.652173913043478	-2.902173913043478	1.395571514063435	7.942549371633752	-5.661280670257331	3906.227106227106	1878.3882783882782	1.0	7.53787443682914	132.6633931594988	-4.65648854961832	0.564885496183206	-1.4198473282442747	-0.6041979010494752	-0.272863568215892	-0.050974512743628186	1366.3003663003662	99.62267904619982	29.06404356067651	
1.771340477767238E12	3.3369565217391304	9.652173913043478	-2.869565217391304	1.400359066427289	7.947336923997606	-5.63016157989228	3903.296703296703	1867.3992673992673	1.0	7.542979668415208	132.5736040609137	-4.6106870229007635	0.41221374045801523	-1.648854961832061	-0.6116941529235382	-0.28785607196401797	-0.026986506746626684	1356.7765567765566	99.62551903067595	29.06404356067651	
1.7713404777867727E12	3.3369565217391304	9.641304347826086	-2.858695652173913	1.374027528426092	7.9401555954518255	-5.611011370436864	3929.6703296703295	1895.970695970696	1.0	7.548084900001275	132.4839364220494	-4.580152671755725	1.114503816793893	-2.045801526717557	-0.6026986506746627	-0.2608695652173913	-0.05547226386806597	1343.5897435897434	99.61983906450166	29.06404356067651	
1.7713404778063074E12	3.282608695652174	9.652173913043478	-2.869565217391304	1.3309395571514062	7.973668461998803	-5.615798922800718	3912.0879120879117	1887.179487179487	1.0	7.558295363173411	132.3049645390071	-4.213740458015267	1.0534351145038168	-2.4580152671755724	-0.5922038980509745	-0.2893553223388306	-0.05397301349325337	1335.5311355311355	99.62835901793005	29.06404356067651	
1.771340477825842E12	3.3152173913043477	9.67391304347826	-2.880434782608696	1.3213644524236983	7.983243566726511	-5.6325553560742065	3932.6007326007325	1909.1575091575091	1.0	7.56340059475948	132.21565980425245	-3.8931297709923665	1.1755725190839694	-2.1526717557251906	-0.6071964017991004	-0.2908545727136432	-0.037481259370314844	1331.8681318681317	99.62835901793005	29.06404356067651	
1.7713404778453767E12	3.25	9.684782608695652	-2.869565217391304	1.2926391382405744	7.992818671454219	-5.666068222621185	3931.135531135531	1920.8791208791208	1.0	7.568505826345548	132.1264755480607	-3.4351145038167936	1.816793893129771	-2.229007633587786	-0.6041979010494752	-0.2848575712143928	-0.038980509745127435	1336.9963369963368	99.62835901793005	29.06404356067651	
1.7713404778649114E12	3.2717391304347827	9.66304347826087	-2.9130434782608696	1.2830640335128665	7.966487133453022	-5.6564931178934765	3929.6703296703295	1917.9487179487178	1.0	7.573611057931615	132.03741152679476	-3.6488549618320607	1.5267175572519083	-2.213740458015267	-0.6041979010494752	-0.27436281859070466	-0.05247376311844078	1345.054945054945	99.62835901793005	29.06404356067651	
1.771340477884446E12	3.2282608695652173	9.684782608695652	-2.9239130434782608	1.2830640335128665	7.985637342908438	-5.675643327348893	3913.5531135531132	1899.6336996336995	1.0	7.583821521103751	131.8596432177718	-4.045801526717557	1.450381679389313	-2.33587786259542	-0.5937031484257871	-0.2638680659670165	-0.04047976011994003	1354.5787545787546	99.62551903067595	29.06404356067651	
1.7713404779039807E12	3.282608695652174	9.66304347826087	-2.891304347826087	1.2974266906044285	7.964093357271095	-5.65409934171155	3929.6703296703295	1912.087912087912	1.0	7.594031984275887	131.68235294117648	-4.152671755725191	0.5190839694656488	-1.648854961832061	-0.5967016491754122	-0.272863568215892	-0.05697151424287856	1361.1721611721612	99.61983906450166	29.06404356067651	
1.7713404779235154E12	3.3260869565217392	9.641304347826086	-2.902173913043478	1.3333333333333333	7.961699581089168	-5.646918013165769	3931.135531135531	1921.6117216117216	1.0	7.599137215861955	131.5938864628821	-4.229007633587786	0.5190839694656488	-2.1526717557251906	-0.5982008995502248	-0.27436281859070466	-0.05397301349325337	1371.4285714285713	99.62267904619982	29.06404356067651	
1.77134047794305E12	3.282608695652174	9.66304347826087	-2.902173913043478	1.3453022142429683	7.942549371633752	-5.646918013165769	3931.135531135531	1923.8095238095236	1.0	7.599137215861955	131.5938864628821	-3.847328244274809	0.24427480916030533	-1.9236641221374045	-0.6026986506746627	-0.2773613193403298	-0.047976011994003	1375.8241758241757	99.62551903067595	29.06404356067651	
1.771340477962585E12	3.293478260869565	9.652173913043478	-2.891304347826087	1.3357271095152603	7.956912028725314	-5.634949132256134	3910.62271062271	1894.5054945054944	1.0	7.609347679034089	131.41730962764174	-3.801526717557252	-0.15267175572519084	-2.0763358778625953	-0.5982008995502248	-0.27436281859070466	-0.050974512743628186	1378.021978021978	99.63403900077225	29.06404356067651	
1.7713404779821196E12	3.3260869565217392	9.66304347826087	-2.880434782608696	1.3046080191502094	7.95212447636146	-5.6325553560742065	3931.135531135531	1916.4835164835163	1.0	7.614452910620157	131.32919879316125	-3.9541984732824424	-0.2595419847328244	-1.8931297709923662	-0.6131934032983508	-0.29535232383808097	-0.046476761619190406	1367.7655677655678	99.62551903067595	29.06404356067651	
1.7713404780016543E12	3.3152173913043477	9.630434782608695	-2.880434782608696	1.3405146618791142	7.937761819269898	-5.634949132256134	3931.135531135531	1923.0769230769229	1.0	7.619558142206224	131.24120603015078	-3.5114503816793894	-0.015267175572519083	-1.7709923664122136	-0.6071964017991004	-0.2608695652173913	-0.05247376311844078	1341.3919413919414	99.63119900796217	29.06404356067651	
1.771340478021189E12	3.3369565217391304	9.66304347826087	-2.902173913043478	1.3572710951526032	7.954518252543387	-5.634949132256134	3929.6703296703295	1918.6813186813185	1.0	7.624663373792294	131.15333110143956	-3.49618320610687	-0.3511450381679389	-1.7557251908396947	-0.608695652173913	-0.28785607196401797	-0.05397301349325337	1323.8095238095236	99.62267904619982	29.06404356067651	
1.7713404780407236E12	3.3804347826086953	9.66304347826087	-2.902173913043478	1.3788150807899462	7.9401555954518255	-5.6564931178934765	3931.135531135531	1923.8095238095236	1.0	7.629768605378362	131.0655737704918	-3.5572519083969465	-0.04580152671755725	-1.5725190839694656	-0.608695652173913	-0.2848575712143928	-0.038980509745127435	1325.2747252747251	99.62551903067595	29.06404356067651	
1.7713404780602583E12	3.3478260869565215	9.684782608695652	-2.9130434782608696	1.381208856971873	7.959305804907241	-5.685218432076601	3906.227106227106	1887.179487179487	1.0	7.63487383696443	130.9779338014042	-3.16030534351145	0.061068702290076333	-1.9236641221374045	-0.6011994002998501	-0.2818590704647676	-0.04947526236881559	1337.7289377289376	99.62551903067595	29.06404356067651	
1.771340478079793E12	3.3478260869565215	9.67391304347826	-2.934782608695652	1.3572710951526032	7.964093357271095	-5.658886894075404	3903.296703296703	1870.3296703296703	1.0	7.639979068550499	130.89041095890408	-3.66412213740458	0.38167938931297707	-1.9694656488549618	-0.5997001499250375	-0.2518740629685157	-0.05847076461769115	1352.3809523809523	99.61983906450166	29.06404356067651	
1.7713404780993276E12	3.3369565217391304	9.652173913043478	-2.9239130434782608	1.3596648713345303	7.954518252543387	-5.7043686415320165	3931.135531135531	1909.1575091575091	1.0	7.650189531722634	130.7157157157157	-3.465648854961832	0.2900763358778626	-1.6335877862595418	-0.6041979010494752	-0.29685157421289354	-0.04947526236881559	1358.2417582417581	99.62551903067595	29.06404356067651	
1.7713404781188623E12	3.293478260869565	9.66304347826087	-2.934782608695652	1.3381208856971873	7.9401555954518255	-5.699581089168163	3910.62271062271	1889.3772893772893	1.0	7.650189531722634	130.7157157157157	-3.480916030534351	0.5343511450381679	-1.9694656488549618	-0.6056971514242878	-0.272863568215892	-0.050974512743628186	1362.6373626373625	99.62551903067595	29.06404356067651	
1.771340478138397E12	3.3043478260869565	9.67391304347826	-2.9239130434782608	1.3333333333333333	7.980849790544584	-5.7043686415320165	3903.296703296703	1871.0622710622708	1.0	7.655294763308702	130.62854284761585	-3.4045801526717554	0.5801526717557252	-1.648854961832061	-0.6026986506746627	-0.2773613193403298	-0.046476761619190406	1373.6263736263736	99.62551903067595	29.06404356067651	
1.7713404781579316E12	3.293478260869565	9.652173913043478	-2.934782608695652	1.3070017953321365	7.947336923997606	-5.692399760622382	3931.135531135531	1909.1575091575091	1.0	7.660399994894769	130.54148617127623	-3.7251908396946565	0.6717557251908397	-1.7099236641221374	-0.5997001499250375	-0.2578710644677661	-0.037481259370314844	1382.4175824175823	99.63119900796217	29.06404356067651	
1.7713404781774663E12	3.3260869565217392	9.67391304347826	-2.934782608695652	1.3261520047875524	7.964093357271095	-5.682824655894674	3928.205128205128	1913.5531135531135	1.0	7.665505226480837	130.45454545454544	-3.5114503816793894	0.366412213740458	-1.4809160305343512	-0.5982008995502248	-0.2623688155922039	-0.050974512743628186	1373.6263736263736	99.62551903067595	29.06404356067651	
1.771340478197001E12	3.3043478260869565	9.652173913043478	-2.9456521739130435	1.3117893476959903	7.930580490724117	-5.718731298623578	3931.135531135531	1922.344322344322	1.0	7.670610458066905	130.36772046589016	-3.7557251908396947	0.6106870229007634	-2.0763358778625953	-0.6056971514242878	-0.29685157421289354	-0.035982008995502246	1353.113553113553	99.62551903067595	29.06404356067651	
1.7713404782165356E12	3.282608695652174	9.66304347826087	-2.9565217391304346	1.3381208856971873	7.925792938360263	-5.706762417713944	3931.135531135531	1924.5421245421244	1.0	7.675715689652972	130.28101097439307	-3.5877862595419847	0.5954198473282443	-1.8015267175572518	-0.6071964017991004	-0.2818590704647676	-0.047976011994003	1346.5201465201465	99.62551903067595	29.06404356067651	
1.7713404782360706E12	3.3043478260869565	9.652173913043478	-2.9456521739130435	1.3117893476959903	7.947336923997606	-5.725912627169359	3903.296703296703	1879.8534798534797	1.0	7.675715689652972	130.28101097439307	-4.091603053435114	0.564885496183206	-1.8473282442748091	-0.6056971514242878	-0.2863568215892054	-0.041979010494752625	1353.8461538461538	99.62551903067595	29.06404356067651	
1.7713404782556052E12	3.3260869565217392	9.66304347826087	-2.9130434782608696	1.3500897666068223	7.966487133453022	-5.699581089168163	3929.6703296703295	1906.9597069597069	1.0	7.68082092123904	130.19441674975073	-4.381679389312977	0.8091603053435115	-1.4351145038167938	-0.5952023988005997	-0.2638680659670165	-0.050974512743628186	1370.6959706959706	99.63119900796217	29.06404356067651	
1.77134047827514E12	3.3478260869565215	9.66304347826087	-2.934782608695652	1.395571514063435	7.949730700179533	-5.685218432076601	3909.1575091575087	1882.7838827838827	1.0	7.6859261528251075	130.10793756227167	-4.213740458015267	0.7786259541984732	-1.4198473282442747	-0.6116941529235382	-0.28785607196401797	-0.04047976011994003	1397.069597069597	99.62267904619982	29.06404356067651	
1.7713404782946746E12	3.391304347826087	9.684782608695652	-2.9130434782608696	1.429084380610413	7.949730700179533	-5.685218432076601	3903.296703296703	1868.8644688644688	1.0	7.6859261528251075	130.10793756227167	-4.091603053435114	0.47328244274809156	-1.6793893129770991	-0.6041979010494752	-0.29535232383808097	-0.04947526236881559	1419.047619047619	99.62267904619982	29.06404356067651	
1.7713404783142092E12	3.3260869565217392	9.66304347826087	-2.9239130434782608	1.362058647516457	7.961699581089168	-5.666068222621185	3931.135531135531	1909.1575091575091	1.0	7.691031384411176	130.0215731828742	-4.061068702290076	0.7633587786259541	-2.1526717557251906	-0.6071964017991004	-0.2773613193403298	-0.047976011994003	1406.5934065934066	99.62551903067595	29.06404356067651	
1.771340478333744E12	3.282608695652174	9.684782608695652	-2.9130434782608696	1.3189706762417714	7.964093357271095	-5.668461998803112	3929.6703296703295	1914.2857142857142	1.0	7.696136615997243	129.93532338308458	-3.877862595419847	0.6412213740458015	-2.8702290076335877	-0.6101949025487257	-0.2818590704647676	-0.04947526236881559	1260.8058608058607	99.62835901793005	29.06404356067651	
1.7713404783532786E12	3.2282608695652173	9.67391304347826	-2.9565217391304346	1.2854578096947935	7.990424895272292	-5.6804308797127465	3929.6703296703295	1915.7509157509155	1.0	7.696136615997243	129.93532338308458	-4.091603053435114	0.4427480916030534	-2.519083969465649	-0.6071964017991004	-0.2848575712143928	-0.04047976011994003	1008.7912087912088	99.62835901793005	29.06404356067651	
1.7713404783728132E12	3.25	9.67391304347826	-2.9565217391304346	1.2663076002393776	7.985637342908438	-5.711549970077797	3912.0879120879117	1893.040293040293	1.0	7.7012418475833115	129.8491879350348	-3.7557251908396947	0.8549618320610687	-2.16793893129771	-0.6056971514242878	-0.27136431784107945	-0.041979010494752625	882.051282051282	99.62551903067595	29.06404356067651	
1.771340478392348E12	3.2717391304347827	9.630434782608695	-2.967391304347826	1.2758827049670856	7.954518252543387	-5.713943746259725	3929.6703296703295	1909.8901098901097	1.0	7.706347079169379	129.76316661146075	-4.244274809160305	1.1908396946564885	-1.7099236641221374	-0.5997001499250375	-0.29685157421289354	-0.041979010494752625	988.2783882783882	99.62267904619982	29.06404356067651	
1.7713404784118826E12	3.293478260869565	9.619565217391305	-2.9456521739130435	1.3213644524236983	7.921005385996409	-5.721125074805506	3929.6703296703295	1915.018315018315	1.0	7.706347079169379	129.76316661146075	-4.0	0.6870229007633587	-1.6793893129770991	-0.6071964017991004	-0.2818590704647676	-0.05547226386806597	1238.8278388278388	99.62551903067595	29.06404356067651	
1.7713404784314172E12	3.293478260869565	9.641304347826086	-2.9130434782608696	1.3524835427887492	7.930580490724117	-5.663674446439257	3909.1575091575087	1886.4468864468863	1.0	7.711452310755448	129.67725918570008	-4.5038167938931295	0.33587786259541985	-1.3893129770992365	-0.5967016491754122	-0.2698650674662669	-0.037481259370314844	1495.970695970696	99.62267904619982	29.06404356067651	
1.771340478450952E12	3.282608695652174	9.66304347826087	-2.9239130434782608	1.3476959904248953	7.954518252543387	-5.644524236983842	3903.296703296703	1870.3296703296703	1.0	7.711452310755448	129.67725918570008	-4.045801526717557	0.2748091603053435	-2.0610687022900764	-0.5982008995502248	-0.2623688155922039	-0.04947526236881559	1656.4102564102564	99.63119900796217	29.06404356067651	
1.7713404784704866E12	3.282608695652174	9.66304347826087	-2.891304347826087	1.3189706762417714	7.968880909634949	-5.65409934171155	3929.6703296703295	1903.296703296703	1.0	7.7165575423415165	129.59146543169035	-4.091603053435114	0.3969465648854962	-1.8625954198473282	-0.6056971514242878	-0.2593703148425787	-0.05397301349325337	1703.296703296703	99.62835901793005	29.06404356067651	
1.7713404784900212E12	3.3043478260869565	9.66304347826087	-2.9456521739130435	1.3261520047875524	7.95212447636146	-5.673249551166966	3928.205128205128	1912.087912087912	1.0	7.7165575423415165	129.59146543169035	-3.66412213740458	0.7786259541984732	-1.8778625954198473	-0.6026986506746627	-0.28785607196401797	-0.05547226386806597	1671.0622710622708	99.63119900796217	29.06404356067651	
1.7713404785095562E12	3.3152173913043477	9.66304347826087	-2.9456521739130435	1.3213644524236983	7.971274685816876	-5.697187312986236	3929.6703296703295	1915.018315018315	1.0	7.721662773927583	129.50578512396694	-4.2748091603053435	0.7633587786259541	-1.7251908396946565	-0.608695652173913	-0.280359820089955	-0.04947526236881559	1592.6739926739926	99.62267904619982	29.06404356067651	
1.7713404785290908E12	3.3152173913043477	9.652173913043478	-2.9130434782608696	1.3381208856971873	7.961699581089168	-5.685218432076601	3931.135531135531	1921.6117216117216	1.0	7.721662773927583	129.50578512396694	-4.183206106870228	0.5343511450381679	-1.7099236641221374	-0.6056971514242878	-0.2788605697151424	-0.04047976011994003	1512.8205128205127	99.61983906450166	29.06404356067651	
1.7713404785486255E12	3.3152173913043477	9.67391304347826	-2.9130434782608696	1.3429084380610412	7.966487133453022	-5.651705565529623	3931.135531135531	1924.5421245421244	1.0	7.721662773927583	129.50578512396694	-4.229007633587786	0.7022900763358778	-1.5114503816793892	-0.5952023988005997	-0.2818590704647676	-0.041979010494752625	1443.956043956044	99.62835901793005	29.06404356067651	
1.7713404785681602E12	3.3043478260869565	9.684782608695652	-2.858695652173913	1.3381208856971873	7.964093357271095	-5.627767803710353	3929.6703296703295	1918.6813186813185	1.0	7.726768005513651	129.42021803766104	-4.290076335877862	0.42748091603053434	-1.648854961832061	-0.608695652173913	-0.2848575712143928	-0.047976011994003	1389.0109890109889	99.62835901793005	29.06404356067651	
1.7713404785876948E12	3.3478260869565215	9.641304347826086	-2.891304347826087	1.3788150807899462	7.947336923997606	-5.618192698982645	3907.6923076923076	1892.3076923076922	1.0	7.726768005513651	129.42021803766104	-4.305343511450381	0.6717557251908397	-1.3740458015267174	-0.6026986506746627	-0.2848575712143928	-0.050974512743628186	1347.2527472527472	99.62551903067595	29.06404356067651	
1.7713404786072295E12	3.3260869565217392	9.652173913043478	-2.880434782608696	1.3788150807899462	7.954518252543387	-5.620586475164572	3903.296703296703	1871.7948717948716	1.0	7.726768005513651	129.42021803766104	-4.152671755725191	0.7175572519083969	-1.5572519083969465	-0.6011994002998501	-0.2773613193403298	-0.05247376311844078	1323.8095238095236	99.62267904619982	29.06404356067651	
1.7713404786267642E12	3.293478260869565	9.67391304347826	-2.880434782608696	1.3309395571514062	7.95212447636146	-5.637342908438061	3929.6703296703295	1904.0293040293038	1.0	7.731873237099718	129.33476394849785	-3.847328244274809	0.8702290076335878	-1.618320610687023	-0.608695652173913	-0.2788605697151424	-0.04047976011994003	1314.2857142857142	99.62267904619982	29.06404356067651	
1.7713404786462988E12	3.2717391304347827	9.684782608695652	-2.9239130434782608	1.3189706762417714	7.97606223818073	-5.651705565529623	3928.205128205128	1912.087912087912	1.0	7.731873237099718	129.33476394849785	-3.618320610687023	0.7480916030534351	-1.6793893129770991	-0.6056971514242878	-0.2908545727136432	-0.04047976011994003	1300.3663003663003	99.62551903067595	29.06404356067651	
1.7713404786658335E12	3.25	9.706521739130434	-2.9130434782608696	1.2710951526032315	7.966487133453022	-5.668461998803112	3929.6703296703295	1915.7509157509155	1.0	7.736978468685787	129.24942263279445	-4.122137404580153	0.916030534351145	-1.6946564885496183	-0.5997001499250375	-0.2653673163418291	-0.05247376311844078	1298.168498168498	99.62470152553138	29.059018683806062	
1.7713404786853682E12	3.260869565217391	9.684782608695652	-2.9130434782608696	1.2710951526032315	7.980849790544584	-5.685218432076601	3916.4835164835163	1900.3663003663003	1.0	7.736978468685787	129.24942263279445	-3.7709923664122136	0.5801526717557252	-1.3893129770992365	-0.608695652173913	-0.29985007496251875	-0.05697151424287856	1301.098901098901	99.62186156421458	29.059018683806062	
1.7713404787049028E12	3.282608695652174	9.66304347826087	-2.9565217391304346	1.3070017953321365	7.971274685816876	-5.690005984440455	3903.296703296703	1873.9926739926739	1.0	7.736978468685787	129.24942263279445	-3.7709923664122136	0.22900763358778625	-1.3129770992366412	-0.5997001499250375	-0.2848575712143928	-0.03298350824587706	1306.227106227106	99.62470152553138	29.059018683806062	
1.7713404787244375E12	3.3043478260869565	9.66304347826087	-2.9456521739130435	1.3165769000598444	7.947336923997606	-5.687612208258527	3932.6007326007325	1905.4945054945053	1.0	7.742083700271854	129.16419386745795	-4.366412213740458	0.1984732824427481	-0.9618320610687022	-0.6011994002998501	-0.2893553223388306	-0.041979010494752625	1326.007326007326	99.62470152553138	29.059018683806062	
1.7713404787439722E12	3.3152173913043477	9.652173913043478	-2.9456521739130435	1.3309395571514062	7.954518252543387	-5.690005984440455	3909.1575091575087	1882.7838827838827	1.0	7.742083700271854	129.16419386745795	-4.213740458015267	-0.015267175572519083	-1.1908396946564885	-0.608695652173913	-0.2893553223388306	-0.050974512743628186	1360.4395604395604	99.62186156421458	29.059018683806062	
1.7713404787635068E12	3.3369565217391304	9.67391304347826	-2.9239130434782608	1.3453022142429683	7.935368043087971	-5.67803710353082	3904.7619047619046	1875.4578754578754	1.0	7.742083700271854	129.16419386745795	-4.091603053435114	-0.366412213740458	-0.916030534351145	-0.6041979010494752	-0.27436281859070466	-0.043478260869565216	1385.3479853479853	99.63038145649875	29.059018683806062	
1.7713404787830417E12	3.3478260869565215	9.641304347826086	-2.902173913043478	1.3596648713345303	7.944943147815679	-5.663674446439257	3931.135531135531	1917.9487179487178	1.0	7.747188931857921	129.07907742998353	-4.259541984732825	-0.2595419847328244	-0.8854961832061068	-0.5967016491754122	-0.29385307346326833	-0.043478260869565216	1390.4761904761904	99.62470152553138	29.059018683806062	
1.7713404788025764E12	3.3478260869565215	9.641304347826086	-2.902173913043478	1.400359066427289	7.956912028725314	-5.649311789347696	3931.135531135531	1923.0769230769229	1.0	7.747188931857921	129.07907742998353	-4.198473282442748	0.0916030534351145	-1.114503816793893	-0.6026986506746627	-0.27136431784107945	-0.046476761619190406	1384.6153846153845	99.61902160567574	29.059018683806062	
1.771340478822111E12	3.3478260869565215	9.66304347826087	-2.9130434782608696	1.3788150807899462	7.949730700179533	-5.65409934171155	3907.6923076923076	1893.040293040293	1.0	7.747188931857921	129.07907742998353	-3.8625954198473282	0.21374045801526717	-1.1908396946564885	-0.6071964017991004	-0.27136431784107945	-0.038980509745127435	1385.3479853479853	99.62470152553138	29.059018683806062	
1.7713404788416458E12	3.3478260869565215	9.66304347826087	-2.891304347826087	1.402752842609216	7.949730700179533	-5.67803710353082	3931.135531135531	1916.4835164835163	1.0	7.752294163443989	128.99407309845242	-3.8167938931297707	-0.22900763358778625	-1.2671755725190839	-0.6011994002998501	-0.29235382308845576	-0.038980509745127435	1375.8241758241757	99.63606139857788	29.059018683806062	
1.7713404788611804E12	3.3478260869565215	9.652173913043478	-2.9239130434782608	1.381208856971873	7.937761819269898	-5.663674446439257	3931.135531135531	1922.344322344322	1.0	7.752294163443989	128.99407309845242	-4.0	-0.030534351145038167	-1.9083969465648853	-0.6026986506746627	-0.2983508245877061	-0.046476761619190406	1356.0439560439559	99.62470152553138	29.059018683806062	
1.771340478880715E12	3.3043478260869565	9.652173913043478	-2.934782608695652	1.3429084380610412	7.956912028725314	-5.694793536804308	3931.135531135531	1923.8095238095236	1.0	7.752294163443989	128.99407309845242	-3.9847328244274807	0.22900763358778625	-1.9236641221374045	-0.6011994002998501	-0.2863568215892054	-0.046476761619190406	1339.9267399267399	99.62754148962611	29.059018683806062	
1.7713404789002498E12	3.2717391304347827	9.684782608695652	-2.9565217391304346	1.3189706762417714	7.985637342908438	-5.740275284260921	3909.1575091575087	1888.6446886446886	1.0	7.757399395030057	128.9091806515301	-3.8931297709923665	0.13740458015267176	-1.9389312977099236	-0.608695652173913	-0.2833583208395802	-0.04497751124437781	1339.194139194139	99.62186156421458	29.059018683806062	
1.7713404789197844E12	3.260869565217391	9.67391304347826	-2.9565217391304346	1.2950329144225015	7.983243566726511	-5.742669060442848	3931.135531135531	1915.018315018315	1.0	7.757399395030057	128.9091806515301	-4.305343511450381	0.549618320610687	-1.618320610687023	-0.6026986506746627	-0.280359820089955	-0.043478260869565216	1347.985347985348	99.62754148962611	29.059018683806062	
1.771340478939319E12	3.282608695652174	9.66304347826087	-2.9565217391304346	1.2902453620586476	7.978456014362657	-5.721125074805506	3931.135531135531	1922.344322344322	1.0	7.757399395030057	128.9091806515301	-4.5038167938931295	0.4580152671755725	-1.3129770992366412	-0.6011994002998501	-0.29235382308845576	-0.038980509745127435	1362.6373626373625	99.62470152553138	29.059018683806062	
1.7713404789588538E12	3.282608695652174	9.67391304347826	-2.934782608695652	1.2926391382405744	7.971274685816876	-5.682824655894674	3929.6703296703295	1917.9487179487178	1.0	7.762504626616124	128.82439986846433	-4.625954198473282	0.5954198473282443	-1.2061068702290076	-0.5967016491754122	-0.29985007496251875	-0.038980509745127435	1372.8937728937728	99.62186156421458	29.059018683806062	
1.7713404789783884E12	3.3478260869565215	9.66304347826087	-2.9130434782608696	1.3883901855176541	7.959305804907241	-5.685218432076601	3931.135531135531	1923.0769230769229	1.0	7.762504626616124	128.82439986846433	-4.99236641221374	0.5954198473282443	-0.564885496183206	-0.6011994002998501	-0.2773613193403298	-0.05397301349325337	1372.161172161172	99.62754148962611	29.059018683806062	
1.771340478997923E12	3.3478260869565215	9.66304347826087	-2.880434782608696	1.3668461998803112	7.964093357271095	-5.661280670257331	3920.879120879121	1904.0293040293038	1.0	7.762504626616124	128.82439986846433	-4.977099236641221	0.42748091603053434	-0.7938931297709924	-0.5952023988005997	-0.2818590704647676	-0.04947526236881559	1355.3113553113553	99.63038145649875	29.059018683806062	
1.7713404790174578E12	3.3260869565217392	9.66304347826087	-2.858695652173913	1.3524835427887492	7.966487133453022	-5.642130460801915	3929.6703296703295	1913.5531135531135	1.0	7.762504626616124	128.82439986846433	-4.824427480916031	0.2748091603053435	-1.1908396946564885	-0.6056971514242878	-0.272863568215892	-0.041979010494752625	1343.5897435897434	99.62754148962611	29.059018683806062	
1.7713404790369924E12	3.3478260869565215	9.66304347826087	-2.869565217391304	1.371633752244165	7.937761819269898	-5.6325553560742065	3931.135531135531	1921.6117216117216	1.0	7.767609858202192	128.73973052908315	-4.854961832061068	0.7022900763358778	-1.3893129770992365	-0.6071964017991004	-0.2983508245877061	-0.04947526236881559	1347.2527472527472	99.62754148962611	29.059018683806062	
1.7713404790565273E12	3.3260869565217392	9.652173913043478	-2.9130434782608696	1.3381208856971873	7.95212447636146	-5.658886894075404	3907.6923076923076	1893.040293040293	1.0	7.767609858202192	128.73973052908315	-4.778625954198473	0.9312977099236641	-1.0381679389312977	-0.6011994002998501	-0.29685157421289354	-0.04497751124437781	1359.7069597069597	99.63038145649875	29.059018683806062	
1.771340479076062E12	3.3043478260869565	9.67391304347826	-2.9130434782608696	1.3405146618791142	7.966487133453022	-5.668461998803112	3925.274725274725	1908.4249084249084	1.0	7.767609858202192	128.73973052908315	-4.351145038167939	0.9770992366412213	-0.9465648854961831	-0.6116941529235382	-0.272863568215892	-0.043478260869565216	1356.7765567765566	99.62470152553138	29.059018683806062	
1.7713404790955967E12	3.3043478260869565	9.684782608695652	-2.902173913043478	1.362058647516457	7.968880909634949	-5.6564931178934765	3931.135531135531	1920.8791208791208	1.0	7.77271508978826	128.6551724137931	-4.473282442748092	0.7938931297709924	-1.3587786259541985	-0.5982008995502248	-0.2773613193403298	-0.04947526236881559	1356.0439560439559	99.62754148962611	29.059018683806062	
1.7713404791151313E12	3.3152173913043477	9.67391304347826	-2.9130434782608696	1.3548773189706762	7.971274685816876	-5.649311789347696	3929.6703296703295	1917.9487179487178	1.0	7.767609858202192	128.73973052908315	-4.5038167938931295	0.6870229007633587	-1.099236641221374	-0.6056971514242878	-0.280359820089955	-0.04947526236881559	1372.161172161172	99.62470152553138	29.059018683806062	
1.771340479134666E12	3.293478260869565	9.684782608695652	-2.869565217391304	1.3189706762417714	7.956912028725314	-5.6325553560742065	3931.135531135531	1923.0769230769229	1.0	7.77271508978826	128.6551724137931	-4.473282442748092	0.564885496183206	-1.083969465648855	-0.6056971514242878	-0.26836581709145424	-0.05847076461769115	1389.0109890109889	99.62754148962611	29.059018683806062	
1.7713404791542007E12	3.282608695652174	9.695652173913043	-2.869565217391304	1.3309395571514062	8.112507480550569	-5.6325553560742065	3922.344322344322	1910.6227106227104	1.0	7.767609858202192	128.73973052908315	-4.427480916030534	0.24427480916030533	-0.9618320610687022	-0.6011994002998501	-0.26686656671664166	-0.046476761619190406	1396.3369963369962	99.63038145649875	29.059018683806062	
1.7713404791737354E12	3.3369565217391304	9.66304347826087	-2.880434782608696	1.3285457809694794	7.968880909634949	-5.63016157989228	3929.6703296703295	1915.018315018315	1.0	7.77271508978826	128.6551724137931	-4.366412213740458	0.5190839694656488	-1.129770992366412	-0.5982008995502248	-0.2818590704647676	-0.037481259370314844	1395.6043956043954	99.61902160567574	29.059018683806062	
1.77134047919327E12	3.3369565217391304	9.67391304347826	-2.891304347826087	1.3596648713345303	7.971274685816876	-5.642130460801915	3929.6703296703295	1916.4835164835163	1.0	7.77271508978826	128.6551724137931	-4.045801526717557	0.48854961832061067	-1.1755725190839694	-0.6101949025487257	-0.2818590704647676	-0.050974512743628186	1391.9413919413919	99.62470152553138	29.059018683806062	
1.7713404792128047E12	3.3260869565217392	9.695652173913043	-2.880434782608696	1.3524835427887492	7.97606223818073	-5.634949132256134	3907.6923076923076	1890.8424908424906	1.0	7.77271508978826	128.6551724137931	-4.366412213740458	0.1984732824427481	-0.9465648854961831	-0.6056971514242878	-0.2623688155922039	-0.04047976011994003	1391.2087912087911	99.63038145649875	29.059018683806062	
1.7713404792323394E12	3.3152173913043477	9.684782608695652	-2.891304347826087	1.3524835427887492	7.97606223818073	-5.65409934171155	3903.296703296703	1871.0622710622708	1.0	7.77271508978826	128.6551724137931	-4.198473282442748	0.4427480916030534	-1.099236641221374	-0.6056971514242878	-0.2908545727136432	-0.04047976011994003	1391.9413919413919	99.62754148962611	29.059018683806062	
1.771340479251874E12	3.3478260869565215	9.67391304347826	-2.880434782608696	1.3500897666068223	7.992818671454219	-5.65409934171155	3929.6703296703295	1904.0293040293038	1.0	7.77271508978826	128.6551724137931	-4.442748091603053	0.10687022900763359	-0.7938931297709924	-0.6011994002998501	-0.2788605697151424	-0.04497751124437781	1386.8131868131868	99.63038145649875	29.059018683806062	
1.7713404792714087E12	3.3478260869565215	9.684782608695652	-2.891304347826087	1.3692399760622382	7.978456014362657	-5.65409934171155	3928.205128205128	1911.3553113553112	1.0	7.77271508978826	128.6551724137931	-4.2748091603053435	0.0916030534351145	-0.9007633587786259	-0.5997001499250375	-0.2848575712143928	-0.04947526236881559	1380.2197802197802	99.62470152553138	29.059018683806062	
1.7713404792909434E12	3.358695652173913	9.684782608695652	-2.891304347826087	1.400359066427289	7.968880909634949	-5.65409934171155	3929.6703296703295	1915.018315018315	1.0	7.77271508978826	128.6551724137931	-4.564885496183206	0.13740458015267176	-0.9465648854961831	-0.6071964017991004	-0.280359820089955	-0.038980509745127435	1385.3479853479853	99.62754148962611	29.059018683806062	
1.771340479310478E12	3.3369565217391304	9.695652173913043	-2.880434782608696	1.381208856971873	7.980849790544584	-5.618192698982645	3929.6703296703295	1916.4835164835163	1.0	7.77271508978826	128.6551724137931	-4.33587786259542	-0.10687022900763359	-0.9312977099236641	-0.5997001499250375	-0.29235382308845576	-0.041979010494752625	1387.5457875457876	99.63038145649875	29.059018683806062	
1.7713404793300127E12	3.3478260869565215	9.684782608695652	-2.902173913043478	1.397965290245362	7.966487133453022	-5.646918013165769	3929.6703296703295	1917.216117216117	1.0	7.77271508978826	128.6551724137931	-4.183206106870228	0.04580152671755725	-0.9312977099236641	-0.6071964017991004	-0.2908545727136432	-0.041979010494752625	1385.3479853479853	99.62470152553138	29.059018683806062	
1.7713404793495476E12	3.369565217391304	9.641304347826086	-2.880434782608696	1.393177737881508	7.966487133453022	-5.651705565529623	3928.205128205128	1916.4835164835163	1.0	7.77271508978826	128.6551724137931	-4.396946564885496	0.07633587786259542	-1.129770992366412	-0.6071964017991004	-0.28785607196401797	-0.05247376311844078	1392.6739926739926	99.62186156421458	29.059018683806062	
1.7713404793690823E12	3.369565217391304	9.67391304347826	-2.902173913043478	1.397965290245362	7.980849790544584	-5.642130460801915	3906.227106227106	1884.9816849816848	1.0	7.767609858202192	128.73973052908315	-4.0	0.5190839694656488	-1.6946564885496183	-0.5997001499250375	-0.2818590704647676	-0.041979010494752625	1399.2673992673992	99.62470152553138	29.059018683806062	
1.771340479388617E12	3.369565217391304	9.67391304347826	-2.9239130434782608	1.414721723518851	7.968880909634949	-5.634949132256134	3929.6703296703295	1907.6923076923076	1.0	7.767609858202192	128.73973052908315	-4.412213740458015	0.0916030534351145	-1.297709923664122	-0.6131934032983508	-0.2818590704647676	-0.05247376311844078	1395.6043956043954	99.63038145649875	29.059018683806062	
1.7713404794081516E12	3.369565217391304	9.684782608695652	-2.902173913043478	1.374027528426092	7.980849790544584	-5.661280670257331	3929.6703296703295	1914.2857142857142	1.0	7.767609858202192	128.73973052908315	-4.3206106870229	0.12213740458015267	-1.4809160305343512	-0.6026986506746627	-0.2593703148425787	-0.041979010494752625	1393.4065934065934	99.62186156421458	29.059018683806062	
1.7713404794276863E12	3.3260869565217392	9.67391304347826	-2.891304347826087	1.3596648713345303	7.97606223818073	-5.63016157989228	3928.205128205128	1915.7509157509155	1.0	7.767609858202192	128.73973052908315	-4.641221374045801	0.0916030534351145	-0.9770992366412213	-0.5967016491754122	-0.29385307346326833	-0.04047976011994003	1389.7435897435896	99.62470152553138	29.059018683806062	
1.771340479447221E12	3.3260869565217392	9.695652173913043	-2.8478260869565215	1.3357271095152603	7.988031119090365	-5.642130460801915	3903.296703296703	1877.6556776556774	1.0	7.77271508978826	128.6551724137931	-5.007633587786259	-0.24427480916030533	-0.8396946564885496	-0.6011994002998501	-0.2848575712143928	-0.050974512743628186	1377.2893772893772	99.62470152553138	29.059018683806062	
1.7713404794667556E12	3.3260869565217392	9.652173913043478	-2.869565217391304	1.3548773189706762	7.930580490724117	-5.608617594254937	3923.8095238095234	1898.168498168498	1.0	7.77271508978826	128.6551724137931	-4.2748091603053435	-0.3053435114503817	-1.4045801526717556	-0.6056971514242878	-0.2788605697151424	-0.037481259370314844	1383.8827838827838	99.62470152553138	29.059018683806062	
1.7713404794862903E12	3.3369565217391304	9.695652173913043	-2.869565217391304	1.3261520047875524	7.997606223818073	-5.603830041891083	3929.6703296703295	1911.3553113553112	1.0	7.767609858202192	128.73973052908315	-3.969465648854962	0.030534351145038167	-1.2671755725190839	-0.6011994002998501	-0.2833583208395802	-0.050974512743628186	1400.0	99.62754148962611	29.059018683806062	
1.771340479505825E12	3.3260869565217392	9.66304347826087	-2.880434782608696	1.3333333333333333	7.973668461998803	-5.625374027528426	3929.6703296703295	1915.018315018315	1.0	7.767609858202192	128.73973052908315	-4.137404580152672	-0.015267175572519083	-0.8091603053435115	-0.6011994002998501	-0.2653673163418291	-0.046476761619190406	1412.4542124542124	99.62754148962611	29.059018683806062	
1.7713404795253596E12	3.3369565217391304	9.66304347826087	-2.902173913043478	1.374027528426092	7.959305804907241	-5.6804308797127465	3906.227106227106	1884.9816849816848	1.0	7.767609858202192	128.73973052908315	-3.9847328244274807	-0.24427480916030533	-0.8396946564885496	-0.6071964017991004	-0.29385307346326833	-0.043478260869565216	1408.7912087912086	99.62754148962611	29.059018683806062	
1.7713404795448943E12	3.369565217391304	9.652173913043478	-2.902173913043478	1.390783961699581	7.95212447636146	-5.625374027528426	3931.135531135531	1913.5531135531135	1.0	7.767609858202192	128.73973052908315	-4.030534351145038	-0.42748091603053434	-0.9312977099236641	-0.608695652173913	-0.2893553223388306	-0.046476761619190406	1400.0	99.63038145649875	29.059018683806062	
1.771340479564429E12	3.402173913043478	9.695652173913043	-2.880434782608696	1.4314781567923398	7.964093357271095	-5.646918013165769	3929.6703296703295	1915.7509157509155	1.0	7.767609858202192	128.73973052908315	-3.877862595419847	-0.8396946564885496	-1.297709923664122	-0.6101949025487257	-0.2788605697151424	-0.04047976011994003	1394.139194139194	99.62754148962611	29.059018683806062	
1.7713404795839636E12	3.4565217391304346	9.728260869565217	-2.891304347826087	1.4697785757031716	8.0	-5.658886894075404	3928.205128205128	1915.7509157509155	1.0	7.767609858202192	128.73973052908315	-4.091603053435114	-0.42748091603053434	-1.83206106870229	-0.5997001499250375	-0.2818590704647676	-0.04497751124437781	1398.5347985347985	99.62470152553138	29.059018683806062	
1.7713404796034983E12	3.4130434782608696	9.75	-2.902173913043478	1.4649910233393177	8.04787552363854	-5.658886894075404	3929.6703296703295	1916.4835164835163	1.0	7.767609858202192	128.73973052908315	-4.213740458015267	-0.183206106870229	-2.564885496183206	-0.6101949025487257	-0.28785607196401797	-0.05397301349325337	1407.3260073260071	99.62754148962611	29.059018683806062	
1.7713404796230332E12	3.3260869565217392	9.73913043478261	-2.9130434782608696	1.393177737881508	8.052663076002393	-5.668461998803112	3925.274725274725	1915.018315018315	1.0	7.767609858202192	128.73973052908315	-4.9465648854961835	-0.21374045801526717	-2.3053435114503817	-0.6056971514242878	-0.2908545727136432	-0.04947526236881559	1398.5347985347985	99.62470152553138	29.059018683806062	
1.7713404796425679E12	3.3152173913043477	9.706521739130434	-2.880434782608696	1.3333333333333333	8.023937761819269	-5.644524236983842	3901.8315018315016	1882.7838827838827	1.0	7.767609858202192	128.73973052908315	-4.717557251908397	-0.22900763358778625	-2.396946564885496	-0.6026986506746627	-0.28785607196401797	-0.04047976011994003	1263.7362637362637	99.62754148962611	29.059018683806062	
1.7713404796621025E12	3.3260869565217392	9.684782608695652	-2.880434782608696	1.3476959904248953	7.978456014362657	-5.634949132256134	3929.6703296703295	1906.9597069597069	1.0	7.767609858202192	128.73973052908315	-4.916030534351145	0.015267175572519083	-1.297709923664122	-0.6041979010494752	-0.29235382308845576	-0.047976011994003	989.7435897435897	99.62917654892425	29.069068437837995	
1.7713404796816372E12	3.369565217391304	9.641304347826086	-2.891304347826087	1.397965290245362	7.947336923997606	-5.642130460801915	3909.1575091575087	1882.7838827838827	1.0	7.762504626616124	128.82439986846433	-4.641221374045801	0.5954198473282443	-0.9465648854961831	-0.5982008995502248	-0.280359820089955	-0.050974512743628186	812.4542124542124	99.6263365385107	29.069068437837995	
1.7713404797011719E12	3.391304347826087	9.641304347826086	-2.880434782608696	1.424296828246559	7.918611609814482	-5.649311789347696	3904.7619047619046	1874.7252747252746	1.0	7.762504626616124	128.82439986846433	-4.793893129770992	0.1984732824427481	-1.1908396946564885	-0.6011994002998501	-0.29385307346326833	-0.047976011994003	880.5860805860805	99.6263365385107	29.069068437837995	
1.7713404797207065E12	3.3804347826086953	9.619565217391305	-2.869565217391304	1.414721723518851	7.906642728904847	-5.637342908438061	3931.135531135531	1911.3553113553112	1.0	7.762504626616124	128.82439986846433	-4.748091603053435	0.04580152671755725	-0.8396946564885496	-0.6041979010494752	-0.29535232383808097	-0.050974512743628186	1129.6703296703297	99.63201656211582	29.069068437837995	
1.7713404797402412E12	3.369565217391304	9.684782608695652	-2.869565217391304	1.424296828246559	7.944943147815679	-5.599042489527229	3929.6703296703295	1916.4835164835163	1.0	7.757399395030057	128.9091806515301	-4.381679389312977	-0.030534351145038167	-1.1755725190839694	-0.6011994002998501	-0.280359820089955	-0.05697151424287856	1398.5347985347985	99.62917654892425	29.069068437837995	
1.771340479759776E12	3.369565217391304	9.695652173913043	-2.858695652173913	1.3836026331538	7.985637342908438	-5.594254937163375	3931.135531135531	1923.0769230769229	1.0	7.757399395030057	128.9091806515301	-4.1679389312977095	-0.07633587786259542	-1.4198473282442747	-0.6071964017991004	-0.2788605697151424	-0.047976011994003	1579.4871794871794	99.6263365385107	29.069068437837995	
1.7713404797793105E12	3.3152173913043477	9.717391304347826	-2.869565217391304	1.3644524236983842	8.009575104727707	-5.627767803710353	3926.7399267399264	1904.7619047619046	1.0	7.757399395030057	128.9091806515301	-4.183206106870228	0.2595419847328244	-1.4961832061068703	-0.6071964017991004	-0.2608695652173913	-0.05397301349325337	1657.8754578754579	99.63201656211582	29.069068437837995	
1.7713404797988452E12	3.3043478260869565	9.695652173913043	-2.891304347826087	1.3500897666068223	8.00718132854578	-5.63016157989228	3929.6703296703295	1913.5531135531135	1.0	7.757399395030057	128.9091806515301	-4.152671755725191	0.549618320610687	-1.7251908396946565	-0.6026986506746627	-0.2908545727136432	-0.043478260869565216	1665.9340659340658	99.62917654892425	29.069068437837995	
1.77134047981838E12	3.3152173913043477	9.706521739130434	-2.891304347826087	1.3500897666068223	8.009575104727707	-5.642130460801915	3931.135531135531	1921.6117216117216	1.0	7.752294163443989	128.99407309845242	-4.473282442748092	0.9618320610687022	-1.129770992366412	-0.6011994002998501	-0.27586206896551724	-0.04947526236881559	1620.5128205128203	99.63201656211582	29.069068437837995	
1.7713404798379146E12	3.3369565217391304	9.706521739130434	-2.869565217391304	1.3596648713345303	8.004787552363855	-5.642130460801915	3907.6923076923076	1893.040293040293	1.0	7.752294163443989	128.99407309845242	-4.7328244274809155	0.564885496183206	-1.0381679389312977	-0.6056971514242878	-0.29235382308845576	-0.047976011994003	1556.7765567765566	99.62349653087516	29.069068437837995	
1.7713404798574492E12	3.3804347826086953	9.652173913043478	-2.891304347826087	1.424296828246559	7.971274685816876	-5.601436265709156	3931.135531135531	1916.4835164835163	1.0	7.747188931857921	129.07907742998353	-4.793893129770992	0.0916030534351145	-1.4198473282442747	-0.6041979010494752	-0.2833583208395802	-0.04497751124437781	1484.9816849816848	99.62917654892425	29.069068437837995	
1.771340479876984E12	3.402173913043478	9.66304347826087	-2.8478260869565215	1.424296828246559	7.949730700179533	-5.591861160981448	3931.135531135531	1922.344322344322	1.0	7.747188931857921	129.07907742998353	-4.809160305343512	0.5343511450381679	-1.8015267175572518	-0.5982008995502248	-0.29385307346326833	-0.047976011994003	1433.6996336996335	99.6263365385107	29.069068437837995	
1.7713404798965188E12	3.4456521739130435	9.67391304347826	-2.8043478260869565	1.4745661280670257	7.97606223818073	-5.553560742070617	3929.6703296703295	1917.9487179487178	1.0	7.747188931857921	129.07907742998353	-4.519083969465648	0.5190839694656488	-1.8778625954198473	-0.5997001499250375	-0.29985007496251875	-0.04047976011994003	1396.3369963369962	99.62917654892425	29.069068437837995	
1.7713404799160535E12	3.4130434782608696	9.695652173913043	-2.8043478260869565	1.4314781567923398	7.968880909634949	-5.543985637342908	3903.296703296703	1879.120879120879	1.0	7.742083700271854	129.16419386745795	-4.213740458015267	0.6870229007633587	-2.2748091603053435	-0.6041979010494752	-0.2773613193403298	-0.05397301349325337	1358.974358974359	99.63201656211582	29.069068437837995	
1.7713404799355881E12	3.3260869565217392	9.717391304347826	-2.8260869565217392	1.371633752244165	8.002393776181927	-5.594254937163375	3931.135531135531	1912.087912087912	1.0	7.742083700271854	129.16419386745795	-3.5572519083969465	0.5954198473282443	-2.183206106870229	-0.6026986506746627	-0.2788605697151424	-0.050974512743628186	1336.263736263736	99.62917654892425	29.069068437837995	
1.7713404799551228E12	3.282608695652174	9.717391304347826	-2.869565217391304	1.3237582286056253	8.016756433273489	-5.634949132256134	3929.6703296703295	1915.7509157509155	1.0	7.742083700271854	129.16419386745795	-3.7404580152671754	0.4580152671755725	-2.045801526717557	-0.6056971514242878	-0.2863568215892054	-0.05397301349325337	1335.5311355311355	99.6263365385107	29.069068437837995	
1.7713404799746575E12	3.2717391304347827	9.706521739130434	-2.891304347826087	1.3237582286056253	8.016756433273489	-5.601436265709156	3931.135531135531	1922.344322344322	1.0	7.736978468685787	129.24942263279445	-3.480916030534351	0.183206106870229	-1.7099236641221374	-0.6101949025487257	-0.2848575712143928	-0.04497751124437781	1332.6007326007325	99.62917654892425	29.069068437837995	
1.7713404799941921E12	3.2717391304347827	9.684782608695652	-2.858695652173913	1.2998204667863555	7.997606223818073	-5.634949132256134	3907.6923076923076	1893.040293040293	1.0	7.736978468685787	129.24942263279445	-4.183206106870228	0.33587786259541985	-1.7251908396946565	-0.6026986506746627	-0.280359820089955	-0.05247376311844078	1337.7289377289376	99.6263365385107	29.069068437837995	
1.7713404800137268E12	3.293478260869565	9.66304347826087	-2.869565217391304	1.3117893476959903	7.961699581089168	-5.613405146618791	3931.135531135531	1916.4835164835163	1.0	7.731873237099718	129.33476394849785	-4.137404580152672	0.061068702290076333	-1.297709923664122	-0.6026986506746627	-0.2893553223388306	-0.05697151424287856	1343.5897435897434	99.62917654892425	29.069068437837995	
1.7713404800332615E12	3.3043478260869565	9.67391304347826	-2.869565217391304	1.3333333333333333	7.973668461998803	-5.608617594254937	3931.135531135531	1923.0769230769229	1.0	7.731873237099718	129.33476394849785	-3.9389312977099236	0.10687022900763359	-0.7633587786259541	-0.6071964017991004	-0.2863568215892054	-0.037481259370314844	1349.4505494505493	99.6263365385107	29.069068437837995	
1.7713404800527961E12	3.369565217391304	9.67391304347826	-2.858695652173913	1.3500897666068223	8.0	-5.579892280071813	3929.6703296703295	1918.6813186813185	1.0	7.726768005513651	129.42021803766104	-4.33587786259542	-0.061068702290076333	-0.6870229007633587	-0.5982008995502248	-0.2908545727136432	-0.031484257871064465	1359.7069597069597	99.62917654892425	29.069068437837995	
1.7713404800723308E12	3.3804347826086953	9.695652173913043	-2.8478260869565215	1.405146618791143	7.985637342908438	-5.5846798324356675	3903.296703296703	1879.120879120879	1.0	7.721662773927583	129.50578512396694	-3.480916030534351	-0.04580152671755725	-0.9007633587786259	-0.6041979010494752	-0.30134932533733133	-0.04947526236881559	1374.3589743589744	99.62917654892425	29.069068437837995	
1.7713404800918655E12	3.402173913043478	9.66304347826087	-2.8260869565217392	1.436265709156194	7.966487133453022	-5.5846798324356675	3928.205128205128	1905.4945054945053	1.0	7.726768005513651	129.42021803766104	-3.679389312977099	0.061068702290076333	-1.0687022900763359	-0.6116941529235382	-0.29385307346326833	-0.05247376311844078	1385.3479853479853	99.63201656211582	29.069068437837995	
1.7713404801114001E12	3.391304347826087	9.67391304347826	-2.880434782608696	1.4482345900658289	7.973668461998803	-5.60622381807301	3929.6703296703295	1913.5531135531135	1.0	7.721662773927583	129.50578512396694	-3.465648854961832	0.21374045801526717	-1.5725190839694656	-0.6026986506746627	-0.28785607196401797	-0.05847076461769115	1401.4652014652013	99.63201656211582	29.069068437837995	
1.7713404801309348E12	3.391304347826087	9.706521739130434	-2.891304347826087	1.4482345900658289	7.961699581089168	-5.63016157989228	3931.135531135531	1921.6117216117216	1.0	7.7165575423415165	129.59146543169035	-3.5114503816793894	0.41221374045801523	-1.7404580152671756	-0.6071964017991004	-0.27136431784107945	-0.04497751124437781	1410.2564102564102	99.63201656211582	29.069068437837995	
1.7713404801504695E12	3.358695652173913	9.706521739130434	-2.902173913043478	1.40754039497307	7.997606223818073	-5.646918013165769	3907.6923076923076	1892.3076923076922	1.0	7.7165575423415165	129.59146543169035	-3.450381679389313	0.015267175572519083	-2.0	-0.5967016491754122	-0.29685157421289354	-0.04947526236881559	1403.6630036630036	99.63201656211582	29.069068437837995	
1.7713404801700044E12	3.358695652173913	9.684782608695652	-2.9130434782608696	1.400359066427289	8.0	-5.627767803710353	3931.135531135531	1915.7509157509155	1.0	7.711452310755448	129.67725918570008	-4.0	0.38167938931297707	-1.7862595419847327	-0.608695652173913	-0.28785607196401797	-0.05547226386806597	1397.8021978021977	99.63201656211582	29.069068437837995	
1.771340480189539E12	3.3260869565217392	9.684782608695652	-2.902173913043478	1.3836026331538	8.009575104727707	-5.6325553560742065	3929.6703296703295	1916.4835164835163	1.0	7.711452310755448	129.67725918570008	-3.7251908396946565	0.2595419847328244	-1.9236641221374045	-0.6071964017991004	-0.29985007496251875	-0.046476761619190406	1391.9413919413919	99.62917654892425	29.069068437837995	
1.7713404802090737E12	3.3804347826086953	9.684782608695652	-2.869565217391304	1.3644524236983842	8.002393776181927	-5.627767803710353	3928.205128205128	1916.4835164835163	1.0	7.706347079169379	129.76316661146075	-3.847328244274809	0.5190839694656488	-1.8015267175572518	-0.6011994002998501	-0.2773613193403298	-0.04497751124437781	1383.8827838827838	99.6263365385107	29.069068437837995	
1.7713404802286084E12	3.358695652173913	9.684782608695652	-2.880434782608696	1.393177737881508	7.97606223818073	-5.625374027528426	3929.6703296703295	1916.4835164835163	1.0	7.706347079169379	129.76316661146075	-3.8625954198473282	0.41221374045801523	-1.618320610687023	-0.5952023988005997	-0.2893553223388306	-0.046476761619190406	1372.8937728937728	99.63201656211582	29.069068437837995	
1.771340480248143E12	3.358695652173913	9.695652173913043	-2.891304347826087	1.3836026331538	7.964093357271095	-5.627767803710353	3926.7399267399264	1909.8901098901097	1.0	7.706347079169379	129.76316661146075	-3.969465648854962	0.5343511450381679	-1.4198473282442747	-0.6041979010494752	-0.29235382308845576	-0.046476761619190406	1364.102564102564	99.63201656211582	29.069068437837995	
